"success","timeout","failed_images","failed_audio","failed_video","phase","experiment_trial_type","trial_type","trial_index","time_elapsed","internal_node_id","subject_id","study_id","session_id","matrix_size","trials_per_block","total_trials","practice_trials","rt","view_history","stimulus","response","position","correct_key","conditional_entropy","surprisal","correct","block","trial_in_block","overall_trial","question_order","questionnaire_item"
"true","false","[]","[]","[]","preload","preload","preload","0","1166","0.0-0.0","P_25fd27a22810e731f84862d3ad31e74c7e7a324148bec38e08e1b9c17c3a1822","697c608fb23a18f07d093e5b","697c6100620caba9b37f663e","6","60","1200","12","","","","","","","","","","","","","",""
"true","","","","","fullscreen","fullscreen","fullscreen","1","10607","0.0-1.0","P_25fd27a22810e731f84862d3ad31e74c7e7a324148bec38e08e1b9c17c3a1822","697c608fb23a18f07d093e5b","697c6100620caba9b37f663e","6","60","1200","12","8426","","","","","","","","","","","","",""
"","","","","","instructions","instructions","instructions","2","141033","0.0-2.0","P_25fd27a22810e731f84862d3ad31e74c7e7a324148bec38e08e1b9c17c3a1822","697c608fb23a18f07d093e5b","697c6100620caba9b37f663e","6","60","1200","12","130422","[{""page_index"":0,""viewing_time"":48095},{""page_index"":1,""viewing_time"":66893},{""page_index"":2,""viewing_time"":15433}]","","","","","","","","","","","",""
"","","","","","","","html-keyboard-response","3","146990","0.0-3.0","P_25fd27a22810e731f84862d3ad31e74c7e7a324148bec38e08e1b9c17c3a1822","697c608fb23a18f07d093e5b","697c6100620caba9b37f663e","6","60","1200","12","5954","","
				<div class=""instruction-text"">
					<h2>Practice</h2>
					<p>You wil start with 12 practice trials to get familiar with the task.</p>
					<p><strong>Ready to practice? Please rest your fingers on these keys throughout the task, as demonstrated below:</strong></p>
					<img src=""assets/key-mappings-6pos.gif"" alt=""Key Mapping"" class=""key-mapping-image"" />
					<p style=""text-align: center;"">Press any key to begin the practice trials.</p>
				</div>","arrowdown","","","","","","","","","",""
"","","","","","practice","stimulus","html-keyboard-response","4","149949","0.0-4.0-0.0-0.0","P_25fd27a22810e731f84862d3ad31e74c7e7a324148bec38e08e1b9c17c3a1822","697c608fb23a18f07d093e5b","697c6100620caba9b37f663e","6","60","1200","12","2955","","<div class=""feedback-message""></div><div class=""stimulus-container""><div class=""position-wrapper""><div class=""key-label"">S</div><div class=""position-box "" data-position=""0""></div></div><div class=""position-wrapper""><div class=""key-label"">D</div><div class=""position-box "" data-position=""1""></div></div><div class=""position-wrapper""><div class=""key-label"">F</div><div class=""position-box "" data-position=""2""></div></div><div class=""position-wrapper""><div class=""key-label"">J</div><div class=""position-box "" data-position=""3""></div></div><div class=""position-wrapper""><div class=""key-label"">K</div><div class=""position-box active"" data-position=""4""></div></div><div class=""position-wrapper""><div class=""key-label"">L</div><div class=""position-box "" data-position=""5""></div></div></div><div class=""finger-diagram-container"">
			<img src=""assets/finger-diagrams/finger-diagram-6pos.png"" alt=""Finger position guide"" class=""finger-diagram"" />
		</div>","k","4","k","0.6265709654819551","null","true","","","","",""
"","","","","","practice","feedback","html-keyboard-response","5","150160","0.0-4.0-0.0-1.0","P_25fd27a22810e731f84862d3ad31e74c7e7a324148bec38e08e1b9c17c3a1822","697c608fb23a18f07d093e5b","697c6100620caba9b37f663e","6","60","1200","12","null","","<div class=""feedback-message""><div class=""feedback-correct"">✓</div></div><div class=""stimulus-container""><div class=""position-wrapper""><div class=""key-label"">S</div><div class=""position-box "" data-position=""0""></div></div><div class=""position-wrapper""><div class=""key-label"">D</div><div class=""position-box "" data-position=""1""></div></div><div class=""position-wrapper""><div class=""key-label"">F</div><div class=""position-box "" data-position=""2""></div></div><div class=""position-wrapper""><div class=""key-label"">J</div><div class=""position-box "" data-position=""3""></div></div><div class=""position-wrapper""><div class=""key-label"">K</div><div class=""position-box active"" data-position=""4""></div></div><div class=""position-wrapper""><div class=""key-label"">L</div><div class=""position-box "" data-position=""5""></div></div></div><div class=""finger-diagram-container"">
			<img src=""assets/finger-diagrams/finger-diagram-6pos.png"" alt=""Finger position guide"" class=""finger-diagram"" />
		</div>","null","","","","","","","","","",""
"","","","","","practice","rsi","html-keyboard-response","6","150296","0.0-4.0-1.0","P_25fd27a22810e731f84862d3ad31e74c7e7a324148bec38e08e1b9c17c3a1822","697c608fb23a18f07d093e5b","697c6100620caba9b37f663e","6","60","1200","12","null","","<div class=""feedback-message""></div><div class=""stimulus-container""><div class=""position-wrapper""><div class=""key-label"">S</div><div class=""position-box "" data-position=""0""></div></div><div class=""position-wrapper""><div class=""key-label"">D</div><div class=""position-box "" data-position=""1""></div></div><div class=""position-wrapper""><div class=""key-label"">F</div><div class=""position-box "" data-position=""2""></div></div><div class=""position-wrapper""><div class=""key-label"">J</div><div class=""position-box "" data-position=""3""></div></div><div class=""position-wrapper""><div class=""key-label"">K</div><div class=""position-box "" data-position=""4""></div></div><div class=""position-wrapper""><div class=""key-label"">L</div><div class=""position-box "" data-position=""5""></div></div></div><div class=""finger-diagram-container"">
			<img src=""assets/finger-diagrams/finger-diagram-6pos.png"" alt=""Finger position guide"" class=""finger-diagram"" />
		</div>","null","","","","","","","","","",""
"","","","","","practice","stimulus","html-keyboard-response","7","151149","0.0-5.0-0.0-0.0","P_25fd27a22810e731f84862d3ad31e74c7e7a324148bec38e08e1b9c17c3a1822","697c608fb23a18f07d093e5b","697c6100620caba9b37f663e","6","60","1200","12","850","","<div class=""feedback-message""></div><div class=""stimulus-container""><div class=""position-wrapper""><div class=""key-label"">S</div><div class=""position-box "" data-position=""0""></div></div><div class=""position-wrapper""><div class=""key-label"">D</div><div class=""position-box "" data-position=""1""></div></div><div class=""position-wrapper""><div class=""key-label"">F</div><div class=""position-box "" data-position=""2""></div></div><div class=""position-wrapper""><div class=""key-label"">J</div><div class=""position-box active"" data-position=""3""></div></div><div class=""position-wrapper""><div class=""key-label"">K</div><div class=""position-box "" data-position=""4""></div></div><div class=""position-wrapper""><div class=""key-label"">L</div><div class=""position-box "" data-position=""5""></div></div></div><div class=""finger-diagram-container"">
			<img src=""assets/finger-diagrams/finger-diagram-6pos.png"" alt=""Finger position guide"" class=""finger-diagram"" />
		</div>","j","3","j","1.919781834473742","35.89771090752385","true","","","","",""
"","","","","","practice","feedback","html-keyboard-response","8","151357","0.0-5.0-0.0-1.0","P_25fd27a22810e731f84862d3ad31e74c7e7a324148bec38e08e1b9c17c3a1822","697c608fb23a18f07d093e5b","697c6100620caba9b37f663e","6","60","1200","12","null","","<div class=""feedback-message""><div class=""feedback-correct"">✓</div></div><div class=""stimulus-container""><div class=""position-wrapper""><div class=""key-label"">S</div><div class=""position-box "" data-position=""0""></div></div><div class=""position-wrapper""><div class=""key-label"">D</div><div class=""position-box "" data-position=""1""></div></div><div class=""position-wrapper""><div class=""key-label"">F</div><div class=""position-box "" data-position=""2""></div></div><div class=""position-wrapper""><div class=""key-label"">J</div><div class=""position-box active"" data-position=""3""></div></div><div class=""position-wrapper""><div class=""key-label"">K</div><div class=""position-box "" data-position=""4""></div></div><div class=""position-wrapper""><div class=""key-label"">L</div><div class=""position-box "" data-position=""5""></div></div></div><div class=""finger-diagram-container"">
			<img src=""assets/finger-diagrams/finger-diagram-6pos.png"" alt=""Finger position guide"" class=""finger-diagram"" />
		</div>","null","","","","","","","","","",""
"","","","","","practice","rsi","html-keyboard-response","9","151494","0.0-5.0-1.0","P_25fd27a22810e731f84862d3ad31e74c7e7a324148bec38e08e1b9c17c3a1822","697c608fb23a18f07d093e5b","697c6100620caba9b37f663e","6","60","1200","12","null","","<div class=""feedback-message""></div><div class=""stimulus-container""><div class=""position-wrapper""><div class=""key-label"">S</div><div class=""position-box "" data-position=""0""></div></div><div class=""position-wrapper""><div class=""key-label"">D</div><div class=""position-box "" data-position=""1""></div></div><div class=""position-wrapper""><div class=""key-label"">F</div><div class=""position-box "" data-position=""2""></div></div><div class=""position-wrapper""><div class=""key-label"">J</div><div class=""position-box "" data-position=""3""></div></div><div class=""position-wrapper""><div class=""key-label"">K</div><div class=""position-box "" data-position=""4""></div></div><div class=""position-wrapper""><div class=""key-label"">L</div><div class=""position-box "" data-position=""5""></div></div></div><div class=""finger-diagram-container"">
			<img src=""assets/finger-diagrams/finger-diagram-6pos.png"" alt=""Finger position guide"" class=""finger-diagram"" />
		</div>","null","","","","","","","","","",""
"","","","","","practice","stimulus","html-keyboard-response","10","152236","0.0-6.0-0.0-0.0","P_25fd27a22810e731f84862d3ad31e74c7e7a324148bec38e08e1b9c17c3a1822","697c608fb23a18f07d093e5b","697c6100620caba9b37f663e","6","60","1200","12","739","","<div class=""feedback-message""></div><div class=""stimulus-container""><div class=""position-wrapper""><div class=""key-label"">S</div><div class=""position-box "" data-position=""0""></div></div><div class=""position-wrapper""><div class=""key-label"">D</div><div class=""position-box "" data-position=""1""></div></div><div class=""position-wrapper""><div class=""key-label"">F</div><div class=""position-box "" data-position=""2""></div></div><div class=""position-wrapper""><div class=""key-label"">J</div><div class=""position-box "" data-position=""3""></div></div><div class=""position-wrapper""><div class=""key-label"">K</div><div class=""position-box "" data-position=""4""></div></div><div class=""position-wrapper""><div class=""key-label"">L</div><div class=""position-box active"" data-position=""5""></div></div></div><div class=""finger-diagram-container"">
			<img src=""assets/finger-diagrams/finger-diagram-6pos.png"" alt=""Finger position guide"" class=""finger-diagram"" />
		</div>","l","5","l","1.7164586615480486","1.9047769601464493","true","","","","",""
"","","","","","practice","feedback","html-keyboard-response","11","152448","0.0-6.0-0.0-1.0","P_25fd27a22810e731f84862d3ad31e74c7e7a324148bec38e08e1b9c17c3a1822","697c608fb23a18f07d093e5b","697c6100620caba9b37f663e","6","60","1200","12","null","","<div class=""feedback-message""><div class=""feedback-correct"">✓</div></div><div class=""stimulus-container""><div class=""position-wrapper""><div class=""key-label"">S</div><div class=""position-box "" data-position=""0""></div></div><div class=""position-wrapper""><div class=""key-label"">D</div><div class=""position-box "" data-position=""1""></div></div><div class=""position-wrapper""><div class=""key-label"">F</div><div class=""position-box "" data-position=""2""></div></div><div class=""position-wrapper""><div class=""key-label"">J</div><div class=""position-box "" data-position=""3""></div></div><div class=""position-wrapper""><div class=""key-label"">K</div><div class=""position-box "" data-position=""4""></div></div><div class=""position-wrapper""><div class=""key-label"">L</div><div class=""position-box active"" data-position=""5""></div></div></div><div class=""finger-diagram-container"">
			<img src=""assets/finger-diagrams/finger-diagram-6pos.png"" alt=""Finger position guide"" class=""finger-diagram"" />
		</div>","null","","","","","","","","","",""
"","","","","","practice","rsi","html-keyboard-response","12","152586","0.0-6.0-1.0","P_25fd27a22810e731f84862d3ad31e74c7e7a324148bec38e08e1b9c17c3a1822","697c608fb23a18f07d093e5b","697c6100620caba9b37f663e","6","60","1200","12","null","","<div class=""feedback-message""></div><div class=""stimulus-container""><div class=""position-wrapper""><div class=""key-label"">S</div><div class=""position-box "" data-position=""0""></div></div><div class=""position-wrapper""><div class=""key-label"">D</div><div class=""position-box "" data-position=""1""></div></div><div class=""position-wrapper""><div class=""key-label"">F</div><div class=""position-box "" data-position=""2""></div></div><div class=""position-wrapper""><div class=""key-label"">J</div><div class=""position-box "" data-position=""3""></div></div><div class=""position-wrapper""><div class=""key-label"">K</div><div class=""position-box "" data-position=""4""></div></div><div class=""position-wrapper""><div class=""key-label"">L</div><div class=""position-box "" data-position=""5""></div></div></div><div class=""finger-diagram-container"">
			<img src=""assets/finger-diagrams/finger-diagram-6pos.png"" alt=""Finger position guide"" class=""finger-diagram"" />
		</div>","null","","","","","","","","","",""
"","","","","","practice","stimulus","html-keyboard-response","13","153237","0.0-7.0-0.0-0.0","P_25fd27a22810e731f84862d3ad31e74c7e7a324148bec38e08e1b9c17c3a1822","697c608fb23a18f07d093e5b","697c6100620caba9b37f663e","6","60","1200","12","648","","<div class=""feedback-message""></div><div class=""stimulus-container""><div class=""position-wrapper""><div class=""key-label"">S</div><div class=""position-box active"" data-position=""0""></div></div><div class=""position-wrapper""><div class=""key-label"">D</div><div class=""position-box "" data-position=""1""></div></div><div class=""position-wrapper""><div class=""key-label"">F</div><div class=""position-box "" data-position=""2""></div></div><div class=""position-wrapper""><div class=""key-label"">J</div><div class=""position-box "" data-position=""3""></div></div><div class=""position-wrapper""><div class=""key-label"">K</div><div class=""position-box "" data-position=""4""></div></div><div class=""position-wrapper""><div class=""key-label"">L</div><div class=""position-box "" data-position=""5""></div></div></div><div class=""finger-diagram-container"">
			<img src=""assets/finger-diagrams/finger-diagram-6pos.png"" alt=""Finger position guide"" class=""finger-diagram"" />
		</div>","s","0","s","1.7163490803009984","null","true","","","","",""
"","","","","","practice","feedback","html-keyboard-response","14","153447","0.0-7.0-0.0-1.0","P_25fd27a22810e731f84862d3ad31e74c7e7a324148bec38e08e1b9c17c3a1822","697c608fb23a18f07d093e5b","697c6100620caba9b37f663e","6","60","1200","12","null","","<div class=""feedback-message""><div class=""feedback-correct"">✓</div></div><div class=""stimulus-container""><div class=""position-wrapper""><div class=""key-label"">S</div><div class=""position-box active"" data-position=""0""></div></div><div class=""position-wrapper""><div class=""key-label"">D</div><div class=""position-box "" data-position=""1""></div></div><div class=""position-wrapper""><div class=""key-label"">F</div><div class=""position-box "" data-position=""2""></div></div><div class=""position-wrapper""><div class=""key-label"">J</div><div class=""position-box "" data-position=""3""></div></div><div class=""position-wrapper""><div class=""key-label"">K</div><div class=""position-box "" data-position=""4""></div></div><div class=""position-wrapper""><div class=""key-label"">L</div><div class=""position-box "" data-position=""5""></div></div></div><div class=""finger-diagram-container"">
			<img src=""assets/finger-diagrams/finger-diagram-6pos.png"" alt=""Finger position guide"" class=""finger-diagram"" />
		</div>","null","","","","","","","","","",""
"","","","","","practice","rsi","html-keyboard-response","15","153573","0.0-7.0-1.0","P_25fd27a22810e731f84862d3ad31e74c7e7a324148bec38e08e1b9c17c3a1822","697c608fb23a18f07d093e5b","697c6100620caba9b37f663e","6","60","1200","12","null","","<div class=""feedback-message""></div><div class=""stimulus-container""><div class=""position-wrapper""><div class=""key-label"">S</div><div class=""position-box "" data-position=""0""></div></div><div class=""position-wrapper""><div class=""key-label"">D</div><div class=""position-box "" data-position=""1""></div></div><div class=""position-wrapper""><div class=""key-label"">F</div><div class=""position-box "" data-position=""2""></div></div><div class=""position-wrapper""><div class=""key-label"">J</div><div class=""position-box "" data-position=""3""></div></div><div class=""position-wrapper""><div class=""key-label"">K</div><div class=""position-box "" data-position=""4""></div></div><div class=""position-wrapper""><div class=""key-label"">L</div><div class=""position-box "" data-position=""5""></div></div></div><div class=""finger-diagram-container"">
			<img src=""assets/finger-diagrams/finger-diagram-6pos.png"" alt=""Finger position guide"" class=""finger-diagram"" />
		</div>","null","","","","","","","","","",""
"","","","","","practice","stimulus","html-keyboard-response","16","154077","0.0-8.0-0.0-0.0","P_25fd27a22810e731f84862d3ad31e74c7e7a324148bec38e08e1b9c17c3a1822","697c608fb23a18f07d093e5b","697c6100620caba9b37f663e","6","60","1200","12","501","","<div class=""feedback-message""></div><div class=""stimulus-container""><div class=""position-wrapper""><div class=""key-label"">S</div><div class=""position-box "" data-position=""0""></div></div><div class=""position-wrapper""><div class=""key-label"">D</div><div class=""position-box active"" data-position=""1""></div></div><div class=""position-wrapper""><div class=""key-label"">F</div><div class=""position-box "" data-position=""2""></div></div><div class=""position-wrapper""><div class=""key-label"">J</div><div class=""position-box "" data-position=""3""></div></div><div class=""position-wrapper""><div class=""key-label"">K</div><div class=""position-box "" data-position=""4""></div></div><div class=""position-wrapper""><div class=""key-label"">L</div><div class=""position-box "" data-position=""5""></div></div></div><div class=""finger-diagram-container"">
			<img src=""assets/finger-diagrams/finger-diagram-6pos.png"" alt=""Finger position guide"" class=""finger-diagram"" />
		</div>","d","1","d","0.09237731181353706","36.01689574143718","true","","","","",""
"","","","","","practice","feedback","html-keyboard-response","17","154283","0.0-8.0-0.0-1.0","P_25fd27a22810e731f84862d3ad31e74c7e7a324148bec38e08e1b9c17c3a1822","697c608fb23a18f07d093e5b","697c6100620caba9b37f663e","6","60","1200","12","null","","<div class=""feedback-message""><div class=""feedback-correct"">✓</div></div><div class=""stimulus-container""><div class=""position-wrapper""><div class=""key-label"">S</div><div class=""position-box "" data-position=""0""></div></div><div class=""position-wrapper""><div class=""key-label"">D</div><div class=""position-box active"" data-position=""1""></div></div><div class=""position-wrapper""><div class=""key-label"">F</div><div class=""position-box "" data-position=""2""></div></div><div class=""position-wrapper""><div class=""key-label"">J</div><div class=""position-box "" data-position=""3""></div></div><div class=""position-wrapper""><div class=""key-label"">K</div><div class=""position-box "" data-position=""4""></div></div><div class=""position-wrapper""><div class=""key-label"">L</div><div class=""position-box "" data-position=""5""></div></div></div><div class=""finger-diagram-container"">
			<img src=""assets/finger-diagrams/finger-diagram-6pos.png"" alt=""Finger position guide"" class=""finger-diagram"" />
		</div>","null","","","","","","","","","",""
"","","","","","practice","rsi","html-keyboard-response","18","154421","0.0-8.0-1.0","P_25fd27a22810e731f84862d3ad31e74c7e7a324148bec38e08e1b9c17c3a1822","697c608fb23a18f07d093e5b","697c6100620caba9b37f663e","6","60","1200","12","null","","<div class=""feedback-message""></div><div class=""stimulus-container""><div class=""position-wrapper""><div class=""key-label"">S</div><div class=""position-box "" data-position=""0""></div></div><div class=""position-wrapper""><div class=""key-label"">D</div><div class=""position-box "" data-position=""1""></div></div><div class=""position-wrapper""><div class=""key-label"">F</div><div class=""position-box "" data-position=""2""></div></div><div class=""position-wrapper""><div class=""key-label"">J</div><div class=""position-box "" data-position=""3""></div></div><div class=""position-wrapper""><div class=""key-label"">K</div><div class=""position-box "" data-position=""4""></div></div><div class=""position-wrapper""><div class=""key-label"">L</div><div class=""position-box "" data-position=""5""></div></div></div><div class=""finger-diagram-container"">
			<img src=""assets/finger-diagrams/finger-diagram-6pos.png"" alt=""Finger position guide"" class=""finger-diagram"" />
		</div>","null","","","","","","","","","",""
"","","","","","practice","stimulus","html-keyboard-response","19","154805","0.0-9.0-0.0-0.0","P_25fd27a22810e731f84862d3ad31e74c7e7a324148bec38e08e1b9c17c3a1822","697c608fb23a18f07d093e5b","697c6100620caba9b37f663e","6","60","1200","12","381","","<div class=""feedback-message""></div><div class=""stimulus-container""><div class=""position-wrapper""><div class=""key-label"">S</div><div class=""position-box "" data-position=""0""></div></div><div class=""position-wrapper""><div class=""key-label"">D</div><div class=""position-box "" data-position=""1""></div></div><div class=""position-wrapper""><div class=""key-label"">F</div><div class=""position-box active"" data-position=""2""></div></div><div class=""position-wrapper""><div class=""key-label"">J</div><div class=""position-box "" data-position=""3""></div></div><div class=""position-wrapper""><div class=""key-label"">K</div><div class=""position-box "" data-position=""4""></div></div><div class=""position-wrapper""><div class=""key-label"">L</div><div class=""position-box "" data-position=""5""></div></div></div><div class=""finger-diagram-container"">
			<img src=""assets/finger-diagrams/finger-diagram-6pos.png"" alt=""Finger position guide"" class=""finger-diagram"" />
		</div>","f","2","f","1.6016287006430234","6.407472371591219","true","","","","",""
"","","","","","practice","feedback","html-keyboard-response","20","155017","0.0-9.0-0.0-1.0","P_25fd27a22810e731f84862d3ad31e74c7e7a324148bec38e08e1b9c17c3a1822","697c608fb23a18f07d093e5b","697c6100620caba9b37f663e","6","60","1200","12","null","","<div class=""feedback-message""><div class=""feedback-correct"">✓</div></div><div class=""stimulus-container""><div class=""position-wrapper""><div class=""key-label"">S</div><div class=""position-box "" data-position=""0""></div></div><div class=""position-wrapper""><div class=""key-label"">D</div><div class=""position-box "" data-position=""1""></div></div><div class=""position-wrapper""><div class=""key-label"">F</div><div class=""position-box active"" data-position=""2""></div></div><div class=""position-wrapper""><div class=""key-label"">J</div><div class=""position-box "" data-position=""3""></div></div><div class=""position-wrapper""><div class=""key-label"">K</div><div class=""position-box "" data-position=""4""></div></div><div class=""position-wrapper""><div class=""key-label"">L</div><div class=""position-box "" data-position=""5""></div></div></div><div class=""finger-diagram-container"">
			<img src=""assets/finger-diagrams/finger-diagram-6pos.png"" alt=""Finger position guide"" class=""finger-diagram"" />
		</div>","null","","","","","","","","","",""
"","","","","","practice","rsi","html-keyboard-response","21","155149","0.0-9.0-1.0","P_25fd27a22810e731f84862d3ad31e74c7e7a324148bec38e08e1b9c17c3a1822","697c608fb23a18f07d093e5b","697c6100620caba9b37f663e","6","60","1200","12","null","","<div class=""feedback-message""></div><div class=""stimulus-container""><div class=""position-wrapper""><div class=""key-label"">S</div><div class=""position-box "" data-position=""0""></div></div><div class=""position-wrapper""><div class=""key-label"">D</div><div class=""position-box "" data-position=""1""></div></div><div class=""position-wrapper""><div class=""key-label"">F</div><div class=""position-box "" data-position=""2""></div></div><div class=""position-wrapper""><div class=""key-label"">J</div><div class=""position-box "" data-position=""3""></div></div><div class=""position-wrapper""><div class=""key-label"">K</div><div class=""position-box "" data-position=""4""></div></div><div class=""position-wrapper""><div class=""key-label"">L</div><div class=""position-box "" data-position=""5""></div></div></div><div class=""finger-diagram-container"">
			<img src=""assets/finger-diagrams/finger-diagram-6pos.png"" alt=""Finger position guide"" class=""finger-diagram"" />
		</div>","null","","","","","","","","","",""
"","","","","","practice","stimulus","html-keyboard-response","22","155758","0.0-10.0-0.0-0.0","P_25fd27a22810e731f84862d3ad31e74c7e7a324148bec38e08e1b9c17c3a1822","697c608fb23a18f07d093e5b","697c6100620caba9b37f663e","6","60","1200","12","606","","<div class=""feedback-message""></div><div class=""stimulus-container""><div class=""position-wrapper""><div class=""key-label"">S</div><div class=""position-box "" data-position=""0""></div></div><div class=""position-wrapper""><div class=""key-label"">D</div><div class=""position-box "" data-position=""1""></div></div><div class=""position-wrapper""><div class=""key-label"">F</div><div class=""position-box "" data-position=""2""></div></div><div class=""position-wrapper""><div class=""key-label"">J</div><div class=""position-box "" data-position=""3""></div></div><div class=""position-wrapper""><div class=""key-label"">K</div><div class=""position-box "" data-position=""4""></div></div><div class=""position-wrapper""><div class=""key-label"">L</div><div class=""position-box active"" data-position=""5""></div></div></div><div class=""finger-diagram-container"">
			<img src=""assets/finger-diagrams/finger-diagram-6pos.png"" alt=""Finger position guide"" class=""finger-diagram"" />
		</div>","l","5","l","1.7164586615480486","1.8672243003169464","true","","","","",""
"","","","","","practice","feedback","html-keyboard-response","23","155966","0.0-10.0-0.0-1.0","P_25fd27a22810e731f84862d3ad31e74c7e7a324148bec38e08e1b9c17c3a1822","697c608fb23a18f07d093e5b","697c6100620caba9b37f663e","6","60","1200","12","null","","<div class=""feedback-message""><div class=""feedback-correct"">✓</div></div><div class=""stimulus-container""><div class=""position-wrapper""><div class=""key-label"">S</div><div class=""position-box "" data-position=""0""></div></div><div class=""position-wrapper""><div class=""key-label"">D</div><div class=""position-box "" data-position=""1""></div></div><div class=""position-wrapper""><div class=""key-label"">F</div><div class=""position-box "" data-position=""2""></div></div><div class=""position-wrapper""><div class=""key-label"">J</div><div class=""position-box "" data-position=""3""></div></div><div class=""position-wrapper""><div class=""key-label"">K</div><div class=""position-box "" data-position=""4""></div></div><div class=""position-wrapper""><div class=""key-label"">L</div><div class=""position-box active"" data-position=""5""></div></div></div><div class=""finger-diagram-container"">
			<img src=""assets/finger-diagrams/finger-diagram-6pos.png"" alt=""Finger position guide"" class=""finger-diagram"" />
		</div>","null","","","","","","","","","",""
"","","","","","practice","rsi","html-keyboard-response","24","156104","0.0-10.0-1.0","P_25fd27a22810e731f84862d3ad31e74c7e7a324148bec38e08e1b9c17c3a1822","697c608fb23a18f07d093e5b","697c6100620caba9b37f663e","6","60","1200","12","null","","<div class=""feedback-message""></div><div class=""stimulus-container""><div class=""position-wrapper""><div class=""key-label"">S</div><div class=""position-box "" data-position=""0""></div></div><div class=""position-wrapper""><div class=""key-label"">D</div><div class=""position-box "" data-position=""1""></div></div><div class=""position-wrapper""><div class=""key-label"">F</div><div class=""position-box "" data-position=""2""></div></div><div class=""position-wrapper""><div class=""key-label"">J</div><div class=""position-box "" data-position=""3""></div></div><div class=""position-wrapper""><div class=""key-label"">K</div><div class=""position-box "" data-position=""4""></div></div><div class=""position-wrapper""><div class=""key-label"">L</div><div class=""position-box "" data-position=""5""></div></div></div><div class=""finger-diagram-container"">
			<img src=""assets/finger-diagrams/finger-diagram-6pos.png"" alt=""Finger position guide"" class=""finger-diagram"" />
		</div>","null","","","","","","","","","",""
"","","","","","practice","stimulus","html-keyboard-response","25","156851","0.0-11.0-0.0-0.0","P_25fd27a22810e731f84862d3ad31e74c7e7a324148bec38e08e1b9c17c3a1822","697c608fb23a18f07d093e5b","697c6100620caba9b37f663e","6","60","1200","12","744","","<div class=""feedback-message""></div><div class=""stimulus-container""><div class=""position-wrapper""><div class=""key-label"">S</div><div class=""position-box "" data-position=""0""></div></div><div class=""position-wrapper""><div class=""key-label"">D</div><div class=""position-box active"" data-position=""1""></div></div><div class=""position-wrapper""><div class=""key-label"">F</div><div class=""position-box "" data-position=""2""></div></div><div class=""position-wrapper""><div class=""key-label"">J</div><div class=""position-box "" data-position=""3""></div></div><div class=""position-wrapper""><div class=""key-label"">K</div><div class=""position-box "" data-position=""4""></div></div><div class=""position-wrapper""><div class=""key-label"">L</div><div class=""position-box "" data-position=""5""></div></div></div><div class=""finger-diagram-container"">
			<img src=""assets/finger-diagrams/finger-diagram-6pos.png"" alt=""Finger position guide"" class=""finger-diagram"" />
		</div>","d","1","d","0.09237731181353706","36.01618095411356","true","","","","",""
"","","","","","practice","feedback","html-keyboard-response","26","157065","0.0-11.0-0.0-1.0","P_25fd27a22810e731f84862d3ad31e74c7e7a324148bec38e08e1b9c17c3a1822","697c608fb23a18f07d093e5b","697c6100620caba9b37f663e","6","60","1200","12","null","","<div class=""feedback-message""><div class=""feedback-correct"">✓</div></div><div class=""stimulus-container""><div class=""position-wrapper""><div class=""key-label"">S</div><div class=""position-box "" data-position=""0""></div></div><div class=""position-wrapper""><div class=""key-label"">D</div><div class=""position-box active"" data-position=""1""></div></div><div class=""position-wrapper""><div class=""key-label"">F</div><div class=""position-box "" data-position=""2""></div></div><div class=""position-wrapper""><div class=""key-label"">J</div><div class=""position-box "" data-position=""3""></div></div><div class=""position-wrapper""><div class=""key-label"">K</div><div class=""position-box "" data-position=""4""></div></div><div class=""position-wrapper""><div class=""key-label"">L</div><div class=""position-box "" data-position=""5""></div></div></div><div class=""finger-diagram-container"">
			<img src=""assets/finger-diagrams/finger-diagram-6pos.png"" alt=""Finger position guide"" class=""finger-diagram"" />
		</div>","null","","","","","","","","","",""
"","","","","","practice","rsi","html-keyboard-response","27","157193","0.0-11.0-1.0","P_25fd27a22810e731f84862d3ad31e74c7e7a324148bec38e08e1b9c17c3a1822","697c608fb23a18f07d093e5b","697c6100620caba9b37f663e","6","60","1200","12","null","","<div class=""feedback-message""></div><div class=""stimulus-container""><div class=""position-wrapper""><div class=""key-label"">S</div><div class=""position-box "" data-position=""0""></div></div><div class=""position-wrapper""><div class=""key-label"">D</div><div class=""position-box "" data-position=""1""></div></div><div class=""position-wrapper""><div class=""key-label"">F</div><div class=""position-box "" data-position=""2""></div></div><div class=""position-wrapper""><div class=""key-label"">J</div><div class=""position-box "" data-position=""3""></div></div><div class=""position-wrapper""><div class=""key-label"">K</div><div class=""position-box "" data-position=""4""></div></div><div class=""position-wrapper""><div class=""key-label"">L</div><div class=""position-box "" data-position=""5""></div></div></div><div class=""finger-diagram-container"">
			<img src=""assets/finger-diagrams/finger-diagram-6pos.png"" alt=""Finger position guide"" class=""finger-diagram"" />
		</div>","null","","","","","","","","","",""
"","","","","","practice","stimulus","html-keyboard-response","28","158165","0.0-12.0-0.0-0.0","P_25fd27a22810e731f84862d3ad31e74c7e7a324148bec38e08e1b9c17c3a1822","697c608fb23a18f07d093e5b","697c6100620caba9b37f663e","6","60","1200","12","968","","<div class=""feedback-message""></div><div class=""stimulus-container""><div class=""position-wrapper""><div class=""key-label"">S</div><div class=""position-box "" data-position=""0""></div></div><div class=""position-wrapper""><div class=""key-label"">D</div><div class=""position-box "" data-position=""1""></div></div><div class=""position-wrapper""><div class=""key-label"">F</div><div class=""position-box "" data-position=""2""></div></div><div class=""position-wrapper""><div class=""key-label"">J</div><div class=""position-box active"" data-position=""3""></div></div><div class=""position-wrapper""><div class=""key-label"">K</div><div class=""position-box "" data-position=""4""></div></div><div class=""position-wrapper""><div class=""key-label"">L</div><div class=""position-box "" data-position=""5""></div></div></div><div class=""finger-diagram-container"">
			<img src=""assets/finger-diagrams/finger-diagram-6pos.png"" alt=""Finger position guide"" class=""finger-diagram"" />
		</div>","j","3","j","1.919781834473742","35.90835755421978","true","","","","",""
"","","","","","practice","feedback","html-keyboard-response","29","158369","0.0-12.0-0.0-1.0","P_25fd27a22810e731f84862d3ad31e74c7e7a324148bec38e08e1b9c17c3a1822","697c608fb23a18f07d093e5b","697c6100620caba9b37f663e","6","60","1200","12","null","","<div class=""feedback-message""><div class=""feedback-correct"">✓</div></div><div class=""stimulus-container""><div class=""position-wrapper""><div class=""key-label"">S</div><div class=""position-box "" data-position=""0""></div></div><div class=""position-wrapper""><div class=""key-label"">D</div><div class=""position-box "" data-position=""1""></div></div><div class=""position-wrapper""><div class=""key-label"">F</div><div class=""position-box "" data-position=""2""></div></div><div class=""position-wrapper""><div class=""key-label"">J</div><div class=""position-box active"" data-position=""3""></div></div><div class=""position-wrapper""><div class=""key-label"">K</div><div class=""position-box "" data-position=""4""></div></div><div class=""position-wrapper""><div class=""key-label"">L</div><div class=""position-box "" data-position=""5""></div></div></div><div class=""finger-diagram-container"">
			<img src=""assets/finger-diagrams/finger-diagram-6pos.png"" alt=""Finger position guide"" class=""finger-diagram"" />
		</div>","null","","","","","","","","","",""
"","","","","","practice","rsi","html-keyboard-response","30","158507","0.0-12.0-1.0","P_25fd27a22810e731f84862d3ad31e74c7e7a324148bec38e08e1b9c17c3a1822","697c608fb23a18f07d093e5b","697c6100620caba9b37f663e","6","60","1200","12","null","","<div class=""feedback-message""></div><div class=""stimulus-container""><div class=""position-wrapper""><div class=""key-label"">S</div><div class=""position-box "" data-position=""0""></div></div><div class=""position-wrapper""><div class=""key-label"">D</div><div class=""position-box "" data-position=""1""></div></div><div class=""position-wrapper""><div class=""key-label"">F</div><div class=""position-box "" data-position=""2""></div></div><div class=""position-wrapper""><div class=""key-label"">J</div><div class=""position-box "" data-position=""3""></div></div><div class=""position-wrapper""><div class=""key-label"">K</div><div class=""position-box "" data-position=""4""></div></div><div class=""position-wrapper""><div class=""key-label"">L</div><div class=""position-box "" data-position=""5""></div></div></div><div class=""finger-diagram-container"">
			<img src=""assets/finger-diagrams/finger-diagram-6pos.png"" alt=""Finger position guide"" class=""finger-diagram"" />
		</div>","null","","","","","","","","","",""
"","","","","","practice","stimulus","html-keyboard-response","31","159050","0.0-13.0-0.0-0.0","P_25fd27a22810e731f84862d3ad31e74c7e7a324148bec38e08e1b9c17c3a1822","697c608fb23a18f07d093e5b","697c6100620caba9b37f663e","6","60","1200","12","541","","<div class=""feedback-message""></div><div class=""stimulus-container""><div class=""position-wrapper""><div class=""key-label"">S</div><div class=""position-box "" data-position=""0""></div></div><div class=""position-wrapper""><div class=""key-label"">D</div><div class=""position-box "" data-position=""1""></div></div><div class=""position-wrapper""><div class=""key-label"">F</div><div class=""position-box "" data-position=""2""></div></div><div class=""position-wrapper""><div class=""key-label"">J</div><div class=""position-box "" data-position=""3""></div></div><div class=""position-wrapper""><div class=""key-label"">K</div><div class=""position-box active"" data-position=""4""></div></div><div class=""position-wrapper""><div class=""key-label"">L</div><div class=""position-box "" data-position=""5""></div></div></div><div class=""finger-diagram-container"">
			<img src=""assets/finger-diagrams/finger-diagram-6pos.png"" alt=""Finger position guide"" class=""finger-diagram"" />
		</div>","k","4","k","0.6265709654819551","1.4191265827700734","true","","","","",""
"","","","","","practice","feedback","html-keyboard-response","32","159256","0.0-13.0-0.0-1.0","P_25fd27a22810e731f84862d3ad31e74c7e7a324148bec38e08e1b9c17c3a1822","697c608fb23a18f07d093e5b","697c6100620caba9b37f663e","6","60","1200","12","null","","<div class=""feedback-message""><div class=""feedback-correct"">✓</div></div><div class=""stimulus-container""><div class=""position-wrapper""><div class=""key-label"">S</div><div class=""position-box "" data-position=""0""></div></div><div class=""position-wrapper""><div class=""key-label"">D</div><div class=""position-box "" data-position=""1""></div></div><div class=""position-wrapper""><div class=""key-label"">F</div><div class=""position-box "" data-position=""2""></div></div><div class=""position-wrapper""><div class=""key-label"">J</div><div class=""position-box "" data-position=""3""></div></div><div class=""position-wrapper""><div class=""key-label"">K</div><div class=""position-box active"" data-position=""4""></div></div><div class=""position-wrapper""><div class=""key-label"">L</div><div class=""position-box "" data-position=""5""></div></div></div><div class=""finger-diagram-container"">
			<img src=""assets/finger-diagrams/finger-diagram-6pos.png"" alt=""Finger position guide"" class=""finger-diagram"" />
		</div>","null","","","","","","","","","",""
"","","","","","practice","rsi","html-keyboard-response","33","159391","0.0-13.0-1.0","P_25fd27a22810e731f84862d3ad31e74c7e7a324148bec38e08e1b9c17c3a1822","697c608fb23a18f07d093e5b","697c6100620caba9b37f663e","6","60","1200","12","null","","<div class=""feedback-message""></div><div class=""stimulus-container""><div class=""position-wrapper""><div class=""key-label"">S</div><div class=""position-box "" data-position=""0""></div></div><div class=""position-wrapper""><div class=""key-label"">D</div><div class=""position-box "" data-position=""1""></div></div><div class=""position-wrapper""><div class=""key-label"">F</div><div class=""position-box "" data-position=""2""></div></div><div class=""position-wrapper""><div class=""key-label"">J</div><div class=""position-box "" data-position=""3""></div></div><div class=""position-wrapper""><div class=""key-label"">K</div><div class=""position-box "" data-position=""4""></div></div><div class=""position-wrapper""><div class=""key-label"">L</div><div class=""position-box "" data-position=""5""></div></div></div><div class=""finger-diagram-container"">
			<img src=""assets/finger-diagrams/finger-diagram-6pos.png"" alt=""Finger position guide"" class=""finger-diagram"" />
		</div>","null","","","","","","","","","",""
"","","","","","practice","stimulus","html-keyboard-response","34","160301","0.0-14.0-0.0-0.0","P_25fd27a22810e731f84862d3ad31e74c7e7a324148bec38e08e1b9c17c3a1822","697c608fb23a18f07d093e5b","697c6100620caba9b37f663e","6","60","1200","12","908","","<div class=""feedback-message""></div><div class=""stimulus-container""><div class=""position-wrapper""><div class=""key-label"">S</div><div class=""position-box active"" data-position=""0""></div></div><div class=""position-wrapper""><div class=""key-label"">D</div><div class=""position-box "" data-position=""1""></div></div><div class=""position-wrapper""><div class=""key-label"">F</div><div class=""position-box "" data-position=""2""></div></div><div class=""position-wrapper""><div class=""key-label"">J</div><div class=""position-box "" data-position=""3""></div></div><div class=""position-wrapper""><div class=""key-label"">K</div><div class=""position-box "" data-position=""4""></div></div><div class=""position-wrapper""><div class=""key-label"">L</div><div class=""position-box "" data-position=""5""></div></div></div><div class=""finger-diagram-container"">
			<img src=""assets/finger-diagrams/finger-diagram-6pos.png"" alt=""Finger position guide"" class=""finger-diagram"" />
		</div>","s","0","s","1.7163490803009984","null","true","","","","",""
"","","","","","practice","feedback","html-keyboard-response","35","160516","0.0-14.0-0.0-1.0","P_25fd27a22810e731f84862d3ad31e74c7e7a324148bec38e08e1b9c17c3a1822","697c608fb23a18f07d093e5b","697c6100620caba9b37f663e","6","60","1200","12","null","","<div class=""feedback-message""><div class=""feedback-correct"">✓</div></div><div class=""stimulus-container""><div class=""position-wrapper""><div class=""key-label"">S</div><div class=""position-box active"" data-position=""0""></div></div><div class=""position-wrapper""><div class=""key-label"">D</div><div class=""position-box "" data-position=""1""></div></div><div class=""position-wrapper""><div class=""key-label"">F</div><div class=""position-box "" data-position=""2""></div></div><div class=""position-wrapper""><div class=""key-label"">J</div><div class=""position-box "" data-position=""3""></div></div><div class=""position-wrapper""><div class=""key-label"">K</div><div class=""position-box "" data-position=""4""></div></div><div class=""position-wrapper""><div class=""key-label"">L</div><div class=""position-box "" data-position=""5""></div></div></div><div class=""finger-diagram-container"">
			<img src=""assets/finger-diagrams/finger-diagram-6pos.png"" alt=""Finger position guide"" class=""finger-diagram"" />
		</div>","null","","","","","","","","","",""
"","","","","","practice","rsi","html-keyboard-response","36","160640","0.0-14.0-1.0","P_25fd27a22810e731f84862d3ad31e74c7e7a324148bec38e08e1b9c17c3a1822","697c608fb23a18f07d093e5b","697c6100620caba9b37f663e","6","60","1200","12","null","","<div class=""feedback-message""></div><div class=""stimulus-container""><div class=""position-wrapper""><div class=""key-label"">S</div><div class=""position-box "" data-position=""0""></div></div><div class=""position-wrapper""><div class=""key-label"">D</div><div class=""position-box "" data-position=""1""></div></div><div class=""position-wrapper""><div class=""key-label"">F</div><div class=""position-box "" data-position=""2""></div></div><div class=""position-wrapper""><div class=""key-label"">J</div><div class=""position-box "" data-position=""3""></div></div><div class=""position-wrapper""><div class=""key-label"">K</div><div class=""position-box "" data-position=""4""></div></div><div class=""position-wrapper""><div class=""key-label"">L</div><div class=""position-box "" data-position=""5""></div></div></div><div class=""finger-diagram-container"">
			<img src=""assets/finger-diagrams/finger-diagram-6pos.png"" alt=""Finger position guide"" class=""finger-diagram"" />
		</div>","null","","","","","","","","","",""
"","","","","","practice","stimulus","html-keyboard-response","37","161532","0.0-15.0-0.0-0.0","P_25fd27a22810e731f84862d3ad31e74c7e7a324148bec38e08e1b9c17c3a1822","697c608fb23a18f07d093e5b","697c6100620caba9b37f663e","6","60","1200","12","890","","<div class=""feedback-message""></div><div class=""stimulus-container""><div class=""position-wrapper""><div class=""key-label"">S</div><div class=""position-box "" data-position=""0""></div></div><div class=""position-wrapper""><div class=""key-label"">D</div><div class=""position-box "" data-position=""1""></div></div><div class=""position-wrapper""><div class=""key-label"">F</div><div class=""position-box active"" data-position=""2""></div></div><div class=""position-wrapper""><div class=""key-label"">J</div><div class=""position-box "" data-position=""3""></div></div><div class=""position-wrapper""><div class=""key-label"">K</div><div class=""position-box "" data-position=""4""></div></div><div class=""position-wrapper""><div class=""key-label"">L</div><div class=""position-box "" data-position=""5""></div></div></div><div class=""finger-diagram-container"">
			<img src=""assets/finger-diagrams/finger-diagram-6pos.png"" alt=""Finger position guide"" class=""finger-diagram"" />
		</div>","f","2","f","1.6016287006430234","2.2528020787541636","true","","","","",""
"","","","","","practice","feedback","html-keyboard-response","38","161747","0.0-15.0-0.0-1.0","P_25fd27a22810e731f84862d3ad31e74c7e7a324148bec38e08e1b9c17c3a1822","697c608fb23a18f07d093e5b","697c6100620caba9b37f663e","6","60","1200","12","null","","<div class=""feedback-message""><div class=""feedback-correct"">✓</div></div><div class=""stimulus-container""><div class=""position-wrapper""><div class=""key-label"">S</div><div class=""position-box "" data-position=""0""></div></div><div class=""position-wrapper""><div class=""key-label"">D</div><div class=""position-box "" data-position=""1""></div></div><div class=""position-wrapper""><div class=""key-label"">F</div><div class=""position-box active"" data-position=""2""></div></div><div class=""position-wrapper""><div class=""key-label"">J</div><div class=""position-box "" data-position=""3""></div></div><div class=""position-wrapper""><div class=""key-label"">K</div><div class=""position-box "" data-position=""4""></div></div><div class=""position-wrapper""><div class=""key-label"">L</div><div class=""position-box "" data-position=""5""></div></div></div><div class=""finger-diagram-container"">
			<img src=""assets/finger-diagrams/finger-diagram-6pos.png"" alt=""Finger position guide"" class=""finger-diagram"" />
		</div>","null","","","","","","","","","",""
"","","","","","practice","rsi","html-keyboard-response","39","161876","0.0-15.0-1.0","P_25fd27a22810e731f84862d3ad31e74c7e7a324148bec38e08e1b9c17c3a1822","697c608fb23a18f07d093e5b","697c6100620caba9b37f663e","6","60","1200","12","null","","<div class=""feedback-message""></div><div class=""stimulus-container""><div class=""position-wrapper""><div class=""key-label"">S</div><div class=""position-box "" data-position=""0""></div></div><div class=""position-wrapper""><div class=""key-label"">D</div><div class=""position-box "" data-position=""1""></div></div><div class=""position-wrapper""><div class=""key-label"">F</div><div class=""position-box "" data-position=""2""></div></div><div class=""position-wrapper""><div class=""key-label"">J</div><div class=""position-box "" data-position=""3""></div></div><div class=""position-wrapper""><div class=""key-label"">K</div><div class=""position-box "" data-position=""4""></div></div><div class=""position-wrapper""><div class=""key-label"">L</div><div class=""position-box "" data-position=""5""></div></div></div><div class=""finger-diagram-container"">
			<img src=""assets/finger-diagrams/finger-diagram-6pos.png"" alt=""Finger position guide"" class=""finger-diagram"" />
		</div>","null","","","","","","","","","",""
"","","","","","practice","practice_end","html-keyboard-response","40","175009","0.0-16.0","P_25fd27a22810e731f84862d3ad31e74c7e7a324148bec38e08e1b9c17c3a1822","697c608fb23a18f07d093e5b","697c6100620caba9b37f663e","6","60","1200","12","13129","","
                <div class=""instruction-text"">
                    <h2>Practice Complete!</h2>
                    <p>You got 12 out of 12 trials correct.</p>
                    <p>Remember: Respond as quickly and accurately as possible.</p>
					<p>Now, you will complete 20 blocks of 60 trials.</p>
                    <p>Between blocks, you will get a break to rest.</p>
                    <p>The entire task takes about 26 minutes.</p>
                    <p><strong>The main task will now begin. Press the spacebar to start.</strong></p>
                </div>
            "," ","","","","","","","","","",""
"","","","","","main","stimulus","html-keyboard-response","41","176240","0.0-17.0-0.0-0.0","P_25fd27a22810e731f84862d3ad31e74c7e7a324148bec38e08e1b9c17c3a1822","697c608fb23a18f07d093e5b","697c6100620caba9b37f663e","6","60","1200","12","1228","","<div class=""feedback-message""></div><div class=""stimulus-container""><div class=""position-wrapper""><div class=""position-box "" data-position=""0""></div></div><div class=""position-wrapper""><div class=""position-box "" data-position=""1""></div></div><div class=""position-wrapper""><div class=""position-box "" data-position=""2""></div></div><div class=""position-wrapper""><div class=""position-box "" data-position=""3""></div></div><div class=""position-wrapper""><div class=""position-box active"" data-position=""4""></div></div><div class=""position-wrapper""><div class=""position-box "" data-position=""5""></div></div></div><div class=""finger-diagram-container"">
			<img src=""assets/finger-diagrams/finger-diagram-6pos.png"" alt=""Finger position guide"" class=""finger-diagram"" />
		</div>","k","4","k","0.6265709654819551","null","true","0","0","0","",""
"","","","","","main","feedback","html-keyboard-response","42","176447","0.0-17.0-0.0-1.0","P_25fd27a22810e731f84862d3ad31e74c7e7a324148bec38e08e1b9c17c3a1822","697c608fb23a18f07d093e5b","697c6100620caba9b37f663e","6","60","1200","12","null","","<div class=""feedback-message""><div class=""feedback-correct"">✓</div></div><div class=""stimulus-container""><div class=""position-wrapper""><div class=""position-box "" data-position=""0""></div></div><div class=""position-wrapper""><div class=""position-box "" data-position=""1""></div></div><div class=""position-wrapper""><div class=""position-box "" data-position=""2""></div></div><div class=""position-wrapper""><div class=""position-box "" data-position=""3""></div></div><div class=""position-wrapper""><div class=""position-box active"" data-position=""4""></div></div><div class=""position-wrapper""><div class=""position-box "" data-position=""5""></div></div></div><div class=""finger-diagram-container"">
			<img src=""assets/finger-diagrams/finger-diagram-6pos.png"" alt=""Finger position guide"" class=""finger-diagram"" />
		</div>","null","","","","","","","","","",""
"","","","","","main","rsi","html-keyboard-response","43","176581","0.0-17.0-1.0","P_25fd27a22810e731f84862d3ad31e74c7e7a324148bec38e08e1b9c17c3a1822","697c608fb23a18f07d093e5b","697c6100620caba9b37f663e","6","60","1200","12","null","","<div class=""feedback-message""></div><div class=""stimulus-container""><div class=""position-wrapper""><div class=""position-box "" data-position=""0""></div></div><div class=""position-wrapper""><div class=""position-box "" data-position=""1""></div></div><div class=""position-wrapper""><div class=""position-box "" data-position=""2""></div></div><div class=""position-wrapper""><div class=""position-box "" data-position=""3""></div></div><div class=""position-wrapper""><div class=""position-box "" data-position=""4""></div></div><div class=""position-wrapper""><div class=""position-box "" data-position=""5""></div></div></div><div class=""finger-diagram-container"">
			<img src=""assets/finger-diagrams/finger-diagram-6pos.png"" alt=""Finger position guide"" class=""finger-diagram"" />
		</div>","null","","","","","","","","","",""
"","","","","","main","stimulus","html-keyboard-response","44","177228","0.0-18.0-0.0-0.0","P_25fd27a22810e731f84862d3ad31e74c7e7a324148bec38e08e1b9c17c3a1822","697c608fb23a18f07d093e5b","697c6100620caba9b37f663e","6","60","1200","12","645","","<div class=""feedback-message""></div><div class=""stimulus-container""><div class=""position-wrapper""><div class=""position-box "" data-position=""0""></div></div><div class=""position-wrapper""><div class=""position-box active"" data-position=""1""></div></div><div class=""position-wrapper""><div class=""position-box "" data-position=""2""></div></div><div class=""position-wrapper""><div class=""position-box "" data-position=""3""></div></div><div class=""position-wrapper""><div class=""position-box "" data-position=""4""></div></div><div class=""position-wrapper""><div class=""position-box "" data-position=""5""></div></div></div><div class=""finger-diagram-container"">
			<img src=""assets/finger-diagrams/finger-diagram-6pos.png"" alt=""Finger position guide"" class=""finger-diagram"" />
		</div>","d","1","d","0.09237731181353706","0.22743527250800727","true","0","1","1","",""
"","","","","","main","feedback","html-keyboard-response","45","177440","0.0-18.0-0.0-1.0","P_25fd27a22810e731f84862d3ad31e74c7e7a324148bec38e08e1b9c17c3a1822","697c608fb23a18f07d093e5b","697c6100620caba9b37f663e","6","60","1200","12","null","","<div class=""feedback-message""><div class=""feedback-correct"">✓</div></div><div class=""stimulus-container""><div class=""position-wrapper""><div class=""position-box "" data-position=""0""></div></div><div class=""position-wrapper""><div class=""position-box active"" data-position=""1""></div></div><div class=""position-wrapper""><div class=""position-box "" data-position=""2""></div></div><div class=""position-wrapper""><div class=""position-box "" data-position=""3""></div></div><div class=""position-wrapper""><div class=""position-box "" data-position=""4""></div></div><div class=""position-wrapper""><div class=""position-box "" data-position=""5""></div></div></div><div class=""finger-diagram-container"">
			<img src=""assets/finger-diagrams/finger-diagram-6pos.png"" alt=""Finger position guide"" class=""finger-diagram"" />
		</div>","null","","","","","","","","","",""
"","","","","","main","rsi","html-keyboard-response","46","177574","0.0-18.0-1.0","P_25fd27a22810e731f84862d3ad31e74c7e7a324148bec38e08e1b9c17c3a1822","697c608fb23a18f07d093e5b","697c6100620caba9b37f663e","6","60","1200","12","null","","<div class=""feedback-message""></div><div class=""stimulus-container""><div class=""position-wrapper""><div class=""position-box "" data-position=""0""></div></div><div class=""position-wrapper""><div class=""position-box "" data-position=""1""></div></div><div class=""position-wrapper""><div class=""position-box "" data-position=""2""></div></div><div class=""position-wrapper""><div class=""position-box "" data-position=""3""></div></div><div class=""position-wrapper""><div class=""position-box "" data-position=""4""></div></div><div class=""position-wrapper""><div class=""position-box "" data-position=""5""></div></div></div><div class=""finger-diagram-container"">
			<img src=""assets/finger-diagrams/finger-diagram-6pos.png"" alt=""Finger position guide"" class=""finger-diagram"" />
		</div>","null","","","","","","","","","",""
"","","","","","main","stimulus","html-keyboard-response","47","178224","0.0-19.0-0.0-0.0","P_25fd27a22810e731f84862d3ad31e74c7e7a324148bec38e08e1b9c17c3a1822","697c608fb23a18f07d093e5b","697c6100620caba9b37f663e","6","60","1200","12","646","","<div class=""feedback-message""></div><div class=""stimulus-container""><div class=""position-wrapper""><div class=""position-box active"" data-position=""0""></div></div><div class=""position-wrapper""><div class=""position-box "" data-position=""1""></div></div><div class=""position-wrapper""><div class=""position-box "" data-position=""2""></div></div><div class=""position-wrapper""><div class=""position-box "" data-position=""3""></div></div><div class=""position-wrapper""><div class=""position-box "" data-position=""4""></div></div><div class=""position-wrapper""><div class=""position-box "" data-position=""5""></div></div></div><div class=""finger-diagram-container"">
			<img src=""assets/finger-diagrams/finger-diagram-6pos.png"" alt=""Finger position guide"" class=""finger-diagram"" />
		</div>","s","0","s","1.7163490803009984","0.01709636891849747","true","0","2","2","",""
"","","","","","main","feedback","html-keyboard-response","48","178431","0.0-19.0-0.0-1.0","P_25fd27a22810e731f84862d3ad31e74c7e7a324148bec38e08e1b9c17c3a1822","697c608fb23a18f07d093e5b","697c6100620caba9b37f663e","6","60","1200","12","null","","<div class=""feedback-message""><div class=""feedback-correct"">✓</div></div><div class=""stimulus-container""><div class=""position-wrapper""><div class=""position-box active"" data-position=""0""></div></div><div class=""position-wrapper""><div class=""position-box "" data-position=""1""></div></div><div class=""position-wrapper""><div class=""position-box "" data-position=""2""></div></div><div class=""position-wrapper""><div class=""position-box "" data-position=""3""></div></div><div class=""position-wrapper""><div class=""position-box "" data-position=""4""></div></div><div class=""position-wrapper""><div class=""position-box "" data-position=""5""></div></div></div><div class=""finger-diagram-container"">
			<img src=""assets/finger-diagrams/finger-diagram-6pos.png"" alt=""Finger position guide"" class=""finger-diagram"" />
		</div>","null","","","","","","","","","",""
"","","","","","main","rsi","html-keyboard-response","49","178556","0.0-19.0-1.0","P_25fd27a22810e731f84862d3ad31e74c7e7a324148bec38e08e1b9c17c3a1822","697c608fb23a18f07d093e5b","697c6100620caba9b37f663e","6","60","1200","12","null","","<div class=""feedback-message""></div><div class=""stimulus-container""><div class=""position-wrapper""><div class=""position-box "" data-position=""0""></div></div><div class=""position-wrapper""><div class=""position-box "" data-position=""1""></div></div><div class=""position-wrapper""><div class=""position-box "" data-position=""2""></div></div><div class=""position-wrapper""><div class=""position-box "" data-position=""3""></div></div><div class=""position-wrapper""><div class=""position-box "" data-position=""4""></div></div><div class=""position-wrapper""><div class=""position-box "" data-position=""5""></div></div></div><div class=""finger-diagram-container"">
			<img src=""assets/finger-diagrams/finger-diagram-6pos.png"" alt=""Finger position guide"" class=""finger-diagram"" />
		</div>","null","","","","","","","","","",""
"","","","","","main","stimulus","html-keyboard-response","50","179152","0.0-20.0-0.0-0.0","P_25fd27a22810e731f84862d3ad31e74c7e7a324148bec38e08e1b9c17c3a1822","697c608fb23a18f07d093e5b","697c6100620caba9b37f663e","6","60","1200","12","593","","<div class=""feedback-message""></div><div class=""stimulus-container""><div class=""position-wrapper""><div class=""position-box "" data-position=""0""></div></div><div class=""position-wrapper""><div class=""position-box "" data-position=""1""></div></div><div class=""position-wrapper""><div class=""position-box "" data-position=""2""></div></div><div class=""position-wrapper""><div class=""position-box "" data-position=""3""></div></div><div class=""position-wrapper""><div class=""position-box "" data-position=""4""></div></div><div class=""position-wrapper""><div class=""position-box active"" data-position=""5""></div></div></div><div class=""finger-diagram-container"">
			<img src=""assets/finger-diagrams/finger-diagram-6pos.png"" alt=""Finger position guide"" class=""finger-diagram"" />
		</div>","l","5","l","1.7164586615480486","2.137181670080976","true","0","3","3","",""
"","","","","","main","feedback","html-keyboard-response","51","179362","0.0-20.0-0.0-1.0","P_25fd27a22810e731f84862d3ad31e74c7e7a324148bec38e08e1b9c17c3a1822","697c608fb23a18f07d093e5b","697c6100620caba9b37f663e","6","60","1200","12","null","","<div class=""feedback-message""><div class=""feedback-correct"">✓</div></div><div class=""stimulus-container""><div class=""position-wrapper""><div class=""position-box "" data-position=""0""></div></div><div class=""position-wrapper""><div class=""position-box "" data-position=""1""></div></div><div class=""position-wrapper""><div class=""position-box "" data-position=""2""></div></div><div class=""position-wrapper""><div class=""position-box "" data-position=""3""></div></div><div class=""position-wrapper""><div class=""position-box "" data-position=""4""></div></div><div class=""position-wrapper""><div class=""position-box active"" data-position=""5""></div></div></div><div class=""finger-diagram-container"">
			<img src=""assets/finger-diagrams/finger-diagram-6pos.png"" alt=""Finger position guide"" class=""finger-diagram"" />
		</div>","null","","","","","","","","","",""
"","","","","","main","rsi","html-keyboard-response","52","179492","0.0-20.0-1.0","P_25fd27a22810e731f84862d3ad31e74c7e7a324148bec38e08e1b9c17c3a1822","697c608fb23a18f07d093e5b","697c6100620caba9b37f663e","6","60","1200","12","null","","<div class=""feedback-message""></div><div class=""stimulus-container""><div class=""position-wrapper""><div class=""position-box "" data-position=""0""></div></div><div class=""position-wrapper""><div class=""position-box "" data-position=""1""></div></div><div class=""position-wrapper""><div class=""position-box "" data-position=""2""></div></div><div class=""position-wrapper""><div class=""position-box "" data-position=""3""></div></div><div class=""position-wrapper""><div class=""position-box "" data-position=""4""></div></div><div class=""position-wrapper""><div class=""position-box "" data-position=""5""></div></div></div><div class=""finger-diagram-container"">
			<img src=""assets/finger-diagrams/finger-diagram-6pos.png"" alt=""Finger position guide"" class=""finger-diagram"" />
		</div>","null","","","","","","","","","",""
"","","","","","main","stimulus","html-keyboard-response","53","180263","0.0-21.0-0.0-0.0","P_25fd27a22810e731f84862d3ad31e74c7e7a324148bec38e08e1b9c17c3a1822","697c608fb23a18f07d093e5b","697c6100620caba9b37f663e","6","60","1200","12","769","","<div class=""feedback-message""></div><div class=""stimulus-container""><div class=""position-wrapper""><div class=""position-box "" data-position=""0""></div></div><div class=""position-wrapper""><div class=""position-box "" data-position=""1""></div></div><div class=""position-wrapper""><div class=""position-box "" data-position=""2""></div></div><div class=""position-wrapper""><div class=""position-box active"" data-position=""3""></div></div><div class=""position-wrapper""><div class=""position-box "" data-position=""4""></div></div><div class=""position-wrapper""><div class=""position-box "" data-position=""5""></div></div></div><div class=""finger-diagram-container"">
			<img src=""assets/finger-diagrams/finger-diagram-6pos.png"" alt=""Finger position guide"" class=""finger-diagram"" />
		</div>","j","3","j","1.919781834473742","1.00700334797659","true","0","4","4","",""
"","","","","","main","feedback","html-keyboard-response","54","180477","0.0-21.0-0.0-1.0","P_25fd27a22810e731f84862d3ad31e74c7e7a324148bec38e08e1b9c17c3a1822","697c608fb23a18f07d093e5b","697c6100620caba9b37f663e","6","60","1200","12","null","","<div class=""feedback-message""><div class=""feedback-correct"">✓</div></div><div class=""stimulus-container""><div class=""position-wrapper""><div class=""position-box "" data-position=""0""></div></div><div class=""position-wrapper""><div class=""position-box "" data-position=""1""></div></div><div class=""position-wrapper""><div class=""position-box "" data-position=""2""></div></div><div class=""position-wrapper""><div class=""position-box active"" data-position=""3""></div></div><div class=""position-wrapper""><div class=""position-box "" data-position=""4""></div></div><div class=""position-wrapper""><div class=""position-box "" data-position=""5""></div></div></div><div class=""finger-diagram-container"">
			<img src=""assets/finger-diagrams/finger-diagram-6pos.png"" alt=""Finger position guide"" class=""finger-diagram"" />
		</div>","null","","","","","","","","","",""
"","","","","","main","rsi","html-keyboard-response","55","180615","0.0-21.0-1.0","P_25fd27a22810e731f84862d3ad31e74c7e7a324148bec38e08e1b9c17c3a1822","697c608fb23a18f07d093e5b","697c6100620caba9b37f663e","6","60","1200","12","null","","<div class=""feedback-message""></div><div class=""stimulus-container""><div class=""position-wrapper""><div class=""position-box "" data-position=""0""></div></div><div class=""position-wrapper""><div class=""position-box "" data-position=""1""></div></div><div class=""position-wrapper""><div class=""position-box "" data-position=""2""></div></div><div class=""position-wrapper""><div class=""position-box "" data-position=""3""></div></div><div class=""position-wrapper""><div class=""position-box "" data-position=""4""></div></div><div class=""position-wrapper""><div class=""position-box "" data-position=""5""></div></div></div><div class=""finger-diagram-container"">
			<img src=""assets/finger-diagrams/finger-diagram-6pos.png"" alt=""Finger position guide"" class=""finger-diagram"" />
		</div>","null","","","","","","","","","",""
"","","","","","main","stimulus","html-keyboard-response","56","181354","0.0-22.0-0.0-0.0","P_25fd27a22810e731f84862d3ad31e74c7e7a324148bec38e08e1b9c17c3a1822","697c608fb23a18f07d093e5b","697c6100620caba9b37f663e","6","60","1200","12","736","","<div class=""feedback-message""></div><div class=""stimulus-container""><div class=""position-wrapper""><div class=""position-box "" data-position=""0""></div></div><div class=""position-wrapper""><div class=""position-box active"" data-position=""1""></div></div><div class=""position-wrapper""><div class=""position-box "" data-position=""2""></div></div><div class=""position-wrapper""><div class=""position-box "" data-position=""3""></div></div><div class=""position-wrapper""><div class=""position-box "" data-position=""4""></div></div><div class=""position-wrapper""><div class=""position-box "" data-position=""5""></div></div></div><div class=""finger-diagram-container"">
			<img src=""assets/finger-diagrams/finger-diagram-6pos.png"" alt=""Finger position guide"" class=""finger-diagram"" />
		</div>","d","1","d","0.09237731181353706","2.777437106616221","true","0","5","5","",""
"","","","","","main","feedback","html-keyboard-response","57","181558","0.0-22.0-0.0-1.0","P_25fd27a22810e731f84862d3ad31e74c7e7a324148bec38e08e1b9c17c3a1822","697c608fb23a18f07d093e5b","697c6100620caba9b37f663e","6","60","1200","12","null","","<div class=""feedback-message""><div class=""feedback-correct"">✓</div></div><div class=""stimulus-container""><div class=""position-wrapper""><div class=""position-box "" data-position=""0""></div></div><div class=""position-wrapper""><div class=""position-box active"" data-position=""1""></div></div><div class=""position-wrapper""><div class=""position-box "" data-position=""2""></div></div><div class=""position-wrapper""><div class=""position-box "" data-position=""3""></div></div><div class=""position-wrapper""><div class=""position-box "" data-position=""4""></div></div><div class=""position-wrapper""><div class=""position-box "" data-position=""5""></div></div></div><div class=""finger-diagram-container"">
			<img src=""assets/finger-diagrams/finger-diagram-6pos.png"" alt=""Finger position guide"" class=""finger-diagram"" />
		</div>","null","","","","","","","","","",""
"","","","","","main","rsi","html-keyboard-response","58","181696","0.0-22.0-1.0","P_25fd27a22810e731f84862d3ad31e74c7e7a324148bec38e08e1b9c17c3a1822","697c608fb23a18f07d093e5b","697c6100620caba9b37f663e","6","60","1200","12","null","","<div class=""feedback-message""></div><div class=""stimulus-container""><div class=""position-wrapper""><div class=""position-box "" data-position=""0""></div></div><div class=""position-wrapper""><div class=""position-box "" data-position=""1""></div></div><div class=""position-wrapper""><div class=""position-box "" data-position=""2""></div></div><div class=""position-wrapper""><div class=""position-box "" data-position=""3""></div></div><div class=""position-wrapper""><div class=""position-box "" data-position=""4""></div></div><div class=""position-wrapper""><div class=""position-box "" data-position=""5""></div></div></div><div class=""finger-diagram-container"">
			<img src=""assets/finger-diagrams/finger-diagram-6pos.png"" alt=""Finger position guide"" class=""finger-diagram"" />
		</div>","null","","","","","","","","","",""
"","","","","","main","stimulus","html-keyboard-response","59","182336","0.0-23.0-0.0-0.0","P_25fd27a22810e731f84862d3ad31e74c7e7a324148bec38e08e1b9c17c3a1822","697c608fb23a18f07d093e5b","697c6100620caba9b37f663e","6","60","1200","12","637","","<div class=""feedback-message""></div><div class=""stimulus-container""><div class=""position-wrapper""><div class=""position-box active"" data-position=""0""></div></div><div class=""position-wrapper""><div class=""position-box "" data-position=""1""></div></div><div class=""position-wrapper""><div class=""position-box "" data-position=""2""></div></div><div class=""position-wrapper""><div class=""position-box "" data-position=""3""></div></div><div class=""position-wrapper""><div class=""position-box "" data-position=""4""></div></div><div class=""position-wrapper""><div class=""position-box "" data-position=""5""></div></div></div><div class=""finger-diagram-container"">
			<img src=""assets/finger-diagrams/finger-diagram-6pos.png"" alt=""Finger position guide"" class=""finger-diagram"" />
		</div>","s","0","s","1.7163490803009984","0.01709636891849747","true","0","6","6","",""
"","","","","","main","feedback","html-keyboard-response","60","182547","0.0-23.0-0.0-1.0","P_25fd27a22810e731f84862d3ad31e74c7e7a324148bec38e08e1b9c17c3a1822","697c608fb23a18f07d093e5b","697c6100620caba9b37f663e","6","60","1200","12","null","","<div class=""feedback-message""><div class=""feedback-correct"">✓</div></div><div class=""stimulus-container""><div class=""position-wrapper""><div class=""position-box active"" data-position=""0""></div></div><div class=""position-wrapper""><div class=""position-box "" data-position=""1""></div></div><div class=""position-wrapper""><div class=""position-box "" data-position=""2""></div></div><div class=""position-wrapper""><div class=""position-box "" data-position=""3""></div></div><div class=""position-wrapper""><div class=""position-box "" data-position=""4""></div></div><div class=""position-wrapper""><div class=""position-box "" data-position=""5""></div></div></div><div class=""finger-diagram-container"">
			<img src=""assets/finger-diagrams/finger-diagram-6pos.png"" alt=""Finger position guide"" class=""finger-diagram"" />
		</div>","null","","","","","","","","","",""
"","","","","","main","rsi","html-keyboard-response","61","182671","0.0-23.0-1.0","P_25fd27a22810e731f84862d3ad31e74c7e7a324148bec38e08e1b9c17c3a1822","697c608fb23a18f07d093e5b","697c6100620caba9b37f663e","6","60","1200","12","null","","<div class=""feedback-message""></div><div class=""stimulus-container""><div class=""position-wrapper""><div class=""position-box "" data-position=""0""></div></div><div class=""position-wrapper""><div class=""position-box "" data-position=""1""></div></div><div class=""position-wrapper""><div class=""position-box "" data-position=""2""></div></div><div class=""position-wrapper""><div class=""position-box "" data-position=""3""></div></div><div class=""position-wrapper""><div class=""position-box "" data-position=""4""></div></div><div class=""position-wrapper""><div class=""position-box "" data-position=""5""></div></div></div><div class=""finger-diagram-container"">
			<img src=""assets/finger-diagrams/finger-diagram-6pos.png"" alt=""Finger position guide"" class=""finger-diagram"" />
		</div>","null","","","","","","","","","",""
"","","","","","main","stimulus","html-keyboard-response","62","183376","0.0-24.0-0.0-0.0","P_25fd27a22810e731f84862d3ad31e74c7e7a324148bec38e08e1b9c17c3a1822","697c608fb23a18f07d093e5b","697c6100620caba9b37f663e","6","60","1200","12","702","","<div class=""feedback-message""></div><div class=""stimulus-container""><div class=""position-wrapper""><div class=""position-box "" data-position=""0""></div></div><div class=""position-wrapper""><div class=""position-box "" data-position=""1""></div></div><div class=""position-wrapper""><div class=""position-box "" data-position=""2""></div></div><div class=""position-wrapper""><div class=""position-box active"" data-position=""3""></div></div><div class=""position-wrapper""><div class=""position-box "" data-position=""4""></div></div><div class=""position-wrapper""><div class=""position-box "" data-position=""5""></div></div></div><div class=""finger-diagram-container"">
			<img src=""assets/finger-diagrams/finger-diagram-6pos.png"" alt=""Finger position guide"" class=""finger-diagram"" />
		</div>","j","3","j","1.919781834473742","1.0067602970615734","true","0","7","7","",""
"","","","","","main","feedback","html-keyboard-response","63","183580","0.0-24.0-0.0-1.0","P_25fd27a22810e731f84862d3ad31e74c7e7a324148bec38e08e1b9c17c3a1822","697c608fb23a18f07d093e5b","697c6100620caba9b37f663e","6","60","1200","12","null","","<div class=""feedback-message""><div class=""feedback-correct"">✓</div></div><div class=""stimulus-container""><div class=""position-wrapper""><div class=""position-box "" data-position=""0""></div></div><div class=""position-wrapper""><div class=""position-box "" data-position=""1""></div></div><div class=""position-wrapper""><div class=""position-box "" data-position=""2""></div></div><div class=""position-wrapper""><div class=""position-box active"" data-position=""3""></div></div><div class=""position-wrapper""><div class=""position-box "" data-position=""4""></div></div><div class=""position-wrapper""><div class=""position-box "" data-position=""5""></div></div></div><div class=""finger-diagram-container"">
			<img src=""assets/finger-diagrams/finger-diagram-6pos.png"" alt=""Finger position guide"" class=""finger-diagram"" />
		</div>","null","","","","","","","","","",""
"","","","","","main","rsi","html-keyboard-response","64","183704","0.0-24.0-1.0","P_25fd27a22810e731f84862d3ad31e74c7e7a324148bec38e08e1b9c17c3a1822","697c608fb23a18f07d093e5b","697c6100620caba9b37f663e","6","60","1200","12","null","","<div class=""feedback-message""></div><div class=""stimulus-container""><div class=""position-wrapper""><div class=""position-box "" data-position=""0""></div></div><div class=""position-wrapper""><div class=""position-box "" data-position=""1""></div></div><div class=""position-wrapper""><div class=""position-box "" data-position=""2""></div></div><div class=""position-wrapper""><div class=""position-box "" data-position=""3""></div></div><div class=""position-wrapper""><div class=""position-box "" data-position=""4""></div></div><div class=""position-wrapper""><div class=""position-box "" data-position=""5""></div></div></div><div class=""finger-diagram-container"">
			<img src=""assets/finger-diagrams/finger-diagram-6pos.png"" alt=""Finger position guide"" class=""finger-diagram"" />
		</div>","null","","","","","","","","","",""
"","","","","","main","stimulus","html-keyboard-response","65","184528","0.0-25.0-0.0-0.0","P_25fd27a22810e731f84862d3ad31e74c7e7a324148bec38e08e1b9c17c3a1822","697c608fb23a18f07d093e5b","697c6100620caba9b37f663e","6","60","1200","12","820","","<div class=""feedback-message""></div><div class=""stimulus-container""><div class=""position-wrapper""><div class=""position-box "" data-position=""0""></div></div><div class=""position-wrapper""><div class=""position-box "" data-position=""1""></div></div><div class=""position-wrapper""><div class=""position-box active"" data-position=""2""></div></div><div class=""position-wrapper""><div class=""position-box "" data-position=""3""></div></div><div class=""position-wrapper""><div class=""position-box "" data-position=""4""></div></div><div class=""position-wrapper""><div class=""position-box "" data-position=""5""></div></div></div><div class=""finger-diagram-container"">
			<img src=""assets/finger-diagrams/finger-diagram-6pos.png"" alt=""Finger position guide"" class=""finger-diagram"" />
		</div>","f","2","f","1.6016287006430234","2.230037588621035","true","0","8","8","",""
"","","","","","main","feedback","html-keyboard-response","66","184731","0.0-25.0-0.0-1.0","P_25fd27a22810e731f84862d3ad31e74c7e7a324148bec38e08e1b9c17c3a1822","697c608fb23a18f07d093e5b","697c6100620caba9b37f663e","6","60","1200","12","null","","<div class=""feedback-message""><div class=""feedback-correct"">✓</div></div><div class=""stimulus-container""><div class=""position-wrapper""><div class=""position-box "" data-position=""0""></div></div><div class=""position-wrapper""><div class=""position-box "" data-position=""1""></div></div><div class=""position-wrapper""><div class=""position-box active"" data-position=""2""></div></div><div class=""position-wrapper""><div class=""position-box "" data-position=""3""></div></div><div class=""position-wrapper""><div class=""position-box "" data-position=""4""></div></div><div class=""position-wrapper""><div class=""position-box "" data-position=""5""></div></div></div><div class=""finger-diagram-container"">
			<img src=""assets/finger-diagrams/finger-diagram-6pos.png"" alt=""Finger position guide"" class=""finger-diagram"" />
		</div>","null","","","","","","","","","",""
"","","","","","main","rsi","html-keyboard-response","67","184866","0.0-25.0-1.0","P_25fd27a22810e731f84862d3ad31e74c7e7a324148bec38e08e1b9c17c3a1822","697c608fb23a18f07d093e5b","697c6100620caba9b37f663e","6","60","1200","12","null","","<div class=""feedback-message""></div><div class=""stimulus-container""><div class=""position-wrapper""><div class=""position-box "" data-position=""0""></div></div><div class=""position-wrapper""><div class=""position-box "" data-position=""1""></div></div><div class=""position-wrapper""><div class=""position-box "" data-position=""2""></div></div><div class=""position-wrapper""><div class=""position-box "" data-position=""3""></div></div><div class=""position-wrapper""><div class=""position-box "" data-position=""4""></div></div><div class=""position-wrapper""><div class=""position-box "" data-position=""5""></div></div></div><div class=""finger-diagram-container"">
			<img src=""assets/finger-diagrams/finger-diagram-6pos.png"" alt=""Finger position guide"" class=""finger-diagram"" />
		</div>","null","","","","","","","","","",""
"","","","","","main","stimulus","html-keyboard-response","68","185836","0.0-26.0-0.0-0.0","P_25fd27a22810e731f84862d3ad31e74c7e7a324148bec38e08e1b9c17c3a1822","697c608fb23a18f07d093e5b","697c6100620caba9b37f663e","6","60","1200","12","966","","<div class=""feedback-message""></div><div class=""stimulus-container""><div class=""position-wrapper""><div class=""position-box "" data-position=""0""></div></div><div class=""position-wrapper""><div class=""position-box "" data-position=""1""></div></div><div class=""position-wrapper""><div class=""position-box "" data-position=""2""></div></div><div class=""position-wrapper""><div class=""position-box "" data-position=""3""></div></div><div class=""position-wrapper""><div class=""position-box active"" data-position=""4""></div></div><div class=""position-wrapper""><div class=""position-box "" data-position=""5""></div></div></div><div class=""finger-diagram-container"">
			<img src=""assets/finger-diagrams/finger-diagram-6pos.png"" alt=""Finger position guide"" class=""finger-diagram"" />
		</div>","k","4","k","0.6265709654819551","1.0125719939883875","true","0","9","9","",""
"","","","","","main","feedback","html-keyboard-response","69","186043","0.0-26.0-0.0-1.0","P_25fd27a22810e731f84862d3ad31e74c7e7a324148bec38e08e1b9c17c3a1822","697c608fb23a18f07d093e5b","697c6100620caba9b37f663e","6","60","1200","12","null","","<div class=""feedback-message""><div class=""feedback-correct"">✓</div></div><div class=""stimulus-container""><div class=""position-wrapper""><div class=""position-box "" data-position=""0""></div></div><div class=""position-wrapper""><div class=""position-box "" data-position=""1""></div></div><div class=""position-wrapper""><div class=""position-box "" data-position=""2""></div></div><div class=""position-wrapper""><div class=""position-box "" data-position=""3""></div></div><div class=""position-wrapper""><div class=""position-box active"" data-position=""4""></div></div><div class=""position-wrapper""><div class=""position-box "" data-position=""5""></div></div></div><div class=""finger-diagram-container"">
			<img src=""assets/finger-diagrams/finger-diagram-6pos.png"" alt=""Finger position guide"" class=""finger-diagram"" />
		</div>","null","","","","","","","","","",""
"","","","","","main","rsi","html-keyboard-response","70","186178","0.0-26.0-1.0","P_25fd27a22810e731f84862d3ad31e74c7e7a324148bec38e08e1b9c17c3a1822","697c608fb23a18f07d093e5b","697c6100620caba9b37f663e","6","60","1200","12","null","","<div class=""feedback-message""></div><div class=""stimulus-container""><div class=""position-wrapper""><div class=""position-box "" data-position=""0""></div></div><div class=""position-wrapper""><div class=""position-box "" data-position=""1""></div></div><div class=""position-wrapper""><div class=""position-box "" data-position=""2""></div></div><div class=""position-wrapper""><div class=""position-box "" data-position=""3""></div></div><div class=""position-wrapper""><div class=""position-box "" data-position=""4""></div></div><div class=""position-wrapper""><div class=""position-box "" data-position=""5""></div></div></div><div class=""finger-diagram-container"">
			<img src=""assets/finger-diagrams/finger-diagram-6pos.png"" alt=""Finger position guide"" class=""finger-diagram"" />
		</div>","null","","","","","","","","","",""
"","","","","","main","stimulus","html-keyboard-response","71","186812","0.0-27.0-0.0-0.0","P_25fd27a22810e731f84862d3ad31e74c7e7a324148bec38e08e1b9c17c3a1822","697c608fb23a18f07d093e5b","697c6100620caba9b37f663e","6","60","1200","12","631","","<div class=""feedback-message""></div><div class=""stimulus-container""><div class=""position-wrapper""><div class=""position-box "" data-position=""0""></div></div><div class=""position-wrapper""><div class=""position-box active"" data-position=""1""></div></div><div class=""position-wrapper""><div class=""position-box "" data-position=""2""></div></div><div class=""position-wrapper""><div class=""position-box "" data-position=""3""></div></div><div class=""position-wrapper""><div class=""position-box "" data-position=""4""></div></div><div class=""position-wrapper""><div class=""position-box "" data-position=""5""></div></div></div><div class=""finger-diagram-container"">
			<img src=""assets/finger-diagrams/finger-diagram-6pos.png"" alt=""Finger position guide"" class=""finger-diagram"" />
		</div>","d","1","d","0.09237731181353706","0.22743527250800727","true","0","10","10","",""
"","","","","","main","feedback","html-keyboard-response","72","187026","0.0-27.0-0.0-1.0","P_25fd27a22810e731f84862d3ad31e74c7e7a324148bec38e08e1b9c17c3a1822","697c608fb23a18f07d093e5b","697c6100620caba9b37f663e","6","60","1200","12","null","","<div class=""feedback-message""><div class=""feedback-correct"">✓</div></div><div class=""stimulus-container""><div class=""position-wrapper""><div class=""position-box "" data-position=""0""></div></div><div class=""position-wrapper""><div class=""position-box active"" data-position=""1""></div></div><div class=""position-wrapper""><div class=""position-box "" data-position=""2""></div></div><div class=""position-wrapper""><div class=""position-box "" data-position=""3""></div></div><div class=""position-wrapper""><div class=""position-box "" data-position=""4""></div></div><div class=""position-wrapper""><div class=""position-box "" data-position=""5""></div></div></div><div class=""finger-diagram-container"">
			<img src=""assets/finger-diagrams/finger-diagram-6pos.png"" alt=""Finger position guide"" class=""finger-diagram"" />
		</div>","null","","","","","","","","","",""
"","","","","","main","rsi","html-keyboard-response","73","187155","0.0-27.0-1.0","P_25fd27a22810e731f84862d3ad31e74c7e7a324148bec38e08e1b9c17c3a1822","697c608fb23a18f07d093e5b","697c6100620caba9b37f663e","6","60","1200","12","null","","<div class=""feedback-message""></div><div class=""stimulus-container""><div class=""position-wrapper""><div class=""position-box "" data-position=""0""></div></div><div class=""position-wrapper""><div class=""position-box "" data-position=""1""></div></div><div class=""position-wrapper""><div class=""position-box "" data-position=""2""></div></div><div class=""position-wrapper""><div class=""position-box "" data-position=""3""></div></div><div class=""position-wrapper""><div class=""position-box "" data-position=""4""></div></div><div class=""position-wrapper""><div class=""position-box "" data-position=""5""></div></div></div><div class=""finger-diagram-container"">
			<img src=""assets/finger-diagrams/finger-diagram-6pos.png"" alt=""Finger position guide"" class=""finger-diagram"" />
		</div>","null","","","","","","","","","",""
"","","","","","main","stimulus","html-keyboard-response","74","187666","0.0-28.0-0.0-0.0","P_25fd27a22810e731f84862d3ad31e74c7e7a324148bec38e08e1b9c17c3a1822","697c608fb23a18f07d093e5b","697c6100620caba9b37f663e","6","60","1200","12","508","","<div class=""feedback-message""></div><div class=""stimulus-container""><div class=""position-wrapper""><div class=""position-box active"" data-position=""0""></div></div><div class=""position-wrapper""><div class=""position-box "" data-position=""1""></div></div><div class=""position-wrapper""><div class=""position-box "" data-position=""2""></div></div><div class=""position-wrapper""><div class=""position-box "" data-position=""3""></div></div><div class=""position-wrapper""><div class=""position-box "" data-position=""4""></div></div><div class=""position-wrapper""><div class=""position-box "" data-position=""5""></div></div></div><div class=""finger-diagram-container"">
			<img src=""assets/finger-diagrams/finger-diagram-6pos.png"" alt=""Finger position guide"" class=""finger-diagram"" />
		</div>","s","0","s","1.7163490803009984","0.01709636891849747","true","0","11","11","",""
"","","","","","main","feedback","html-keyboard-response","75","187874","0.0-28.0-0.0-1.0","P_25fd27a22810e731f84862d3ad31e74c7e7a324148bec38e08e1b9c17c3a1822","697c608fb23a18f07d093e5b","697c6100620caba9b37f663e","6","60","1200","12","null","","<div class=""feedback-message""><div class=""feedback-correct"">✓</div></div><div class=""stimulus-container""><div class=""position-wrapper""><div class=""position-box active"" data-position=""0""></div></div><div class=""position-wrapper""><div class=""position-box "" data-position=""1""></div></div><div class=""position-wrapper""><div class=""position-box "" data-position=""2""></div></div><div class=""position-wrapper""><div class=""position-box "" data-position=""3""></div></div><div class=""position-wrapper""><div class=""position-box "" data-position=""4""></div></div><div class=""position-wrapper""><div class=""position-box "" data-position=""5""></div></div></div><div class=""finger-diagram-container"">
			<img src=""assets/finger-diagrams/finger-diagram-6pos.png"" alt=""Finger position guide"" class=""finger-diagram"" />
		</div>","null","","","","","","","","","",""
"","","","","","main","rsi","html-keyboard-response","76","188008","0.0-28.0-1.0","P_25fd27a22810e731f84862d3ad31e74c7e7a324148bec38e08e1b9c17c3a1822","697c608fb23a18f07d093e5b","697c6100620caba9b37f663e","6","60","1200","12","null","","<div class=""feedback-message""></div><div class=""stimulus-container""><div class=""position-wrapper""><div class=""position-box "" data-position=""0""></div></div><div class=""position-wrapper""><div class=""position-box "" data-position=""1""></div></div><div class=""position-wrapper""><div class=""position-box "" data-position=""2""></div></div><div class=""position-wrapper""><div class=""position-box "" data-position=""3""></div></div><div class=""position-wrapper""><div class=""position-box "" data-position=""4""></div></div><div class=""position-wrapper""><div class=""position-box "" data-position=""5""></div></div></div><div class=""finger-diagram-container"">
			<img src=""assets/finger-diagrams/finger-diagram-6pos.png"" alt=""Finger position guide"" class=""finger-diagram"" />
		</div>","null","","","","","","","","","",""
"","","","","","main","stimulus","html-keyboard-response","77","188590","0.0-29.0-0.0-0.0","P_25fd27a22810e731f84862d3ad31e74c7e7a324148bec38e08e1b9c17c3a1822","697c608fb23a18f07d093e5b","697c6100620caba9b37f663e","6","60","1200","12","579","","<div class=""feedback-message""></div><div class=""stimulus-container""><div class=""position-wrapper""><div class=""position-box "" data-position=""0""></div></div><div class=""position-wrapper""><div class=""position-box "" data-position=""1""></div></div><div class=""position-wrapper""><div class=""position-box "" data-position=""2""></div></div><div class=""position-wrapper""><div class=""position-box "" data-position=""3""></div></div><div class=""position-wrapper""><div class=""position-box active"" data-position=""4""></div></div><div class=""position-wrapper""><div class=""position-box "" data-position=""5""></div></div></div><div class=""finger-diagram-container"">
			<img src=""assets/finger-diagrams/finger-diagram-6pos.png"" alt=""Finger position guide"" class=""finger-diagram"" />
		</div>","k","4","k","0.6265709654819551","3.939032191874535","true","0","12","12","",""
"","","","","","main","feedback","html-keyboard-response","78","188796","0.0-29.0-0.0-1.0","P_25fd27a22810e731f84862d3ad31e74c7e7a324148bec38e08e1b9c17c3a1822","697c608fb23a18f07d093e5b","697c6100620caba9b37f663e","6","60","1200","12","null","","<div class=""feedback-message""><div class=""feedback-correct"">✓</div></div><div class=""stimulus-container""><div class=""position-wrapper""><div class=""position-box "" data-position=""0""></div></div><div class=""position-wrapper""><div class=""position-box "" data-position=""1""></div></div><div class=""position-wrapper""><div class=""position-box "" data-position=""2""></div></div><div class=""position-wrapper""><div class=""position-box "" data-position=""3""></div></div><div class=""position-wrapper""><div class=""position-box active"" data-position=""4""></div></div><div class=""position-wrapper""><div class=""position-box "" data-position=""5""></div></div></div><div class=""finger-diagram-container"">
			<img src=""assets/finger-diagrams/finger-diagram-6pos.png"" alt=""Finger position guide"" class=""finger-diagram"" />
		</div>","null","","","","","","","","","",""
"","","","","","main","rsi","html-keyboard-response","79","188922","0.0-29.0-1.0","P_25fd27a22810e731f84862d3ad31e74c7e7a324148bec38e08e1b9c17c3a1822","697c608fb23a18f07d093e5b","697c6100620caba9b37f663e","6","60","1200","12","null","","<div class=""feedback-message""></div><div class=""stimulus-container""><div class=""position-wrapper""><div class=""position-box "" data-position=""0""></div></div><div class=""position-wrapper""><div class=""position-box "" data-position=""1""></div></div><div class=""position-wrapper""><div class=""position-box "" data-position=""2""></div></div><div class=""position-wrapper""><div class=""position-box "" data-position=""3""></div></div><div class=""position-wrapper""><div class=""position-box "" data-position=""4""></div></div><div class=""position-wrapper""><div class=""position-box "" data-position=""5""></div></div></div><div class=""finger-diagram-container"">
			<img src=""assets/finger-diagrams/finger-diagram-6pos.png"" alt=""Finger position guide"" class=""finger-diagram"" />
		</div>","null","","","","","","","","","",""
"","","","","","main","stimulus","html-keyboard-response","80","189685","0.0-30.0-0.0-0.0","P_25fd27a22810e731f84862d3ad31e74c7e7a324148bec38e08e1b9c17c3a1822","697c608fb23a18f07d093e5b","697c6100620caba9b37f663e","6","60","1200","12","760","","<div class=""feedback-message""></div><div class=""stimulus-container""><div class=""position-wrapper""><div class=""position-box "" data-position=""0""></div></div><div class=""position-wrapper""><div class=""position-box "" data-position=""1""></div></div><div class=""position-wrapper""><div class=""position-box active"" data-position=""2""></div></div><div class=""position-wrapper""><div class=""position-box "" data-position=""3""></div></div><div class=""position-wrapper""><div class=""position-box "" data-position=""4""></div></div><div class=""position-wrapper""><div class=""position-box "" data-position=""5""></div></div></div><div class=""finger-diagram-container"">
			<img src=""assets/finger-diagrams/finger-diagram-6pos.png"" alt=""Finger position guide"" class=""finger-diagram"" />
		</div>","f","2","f","1.6016287006430234","2.8191226921226544","true","0","13","13","",""
"","","","","","main","feedback","html-keyboard-response","81","189897","0.0-30.0-0.0-1.0","P_25fd27a22810e731f84862d3ad31e74c7e7a324148bec38e08e1b9c17c3a1822","697c608fb23a18f07d093e5b","697c6100620caba9b37f663e","6","60","1200","12","null","","<div class=""feedback-message""><div class=""feedback-correct"">✓</div></div><div class=""stimulus-container""><div class=""position-wrapper""><div class=""position-box "" data-position=""0""></div></div><div class=""position-wrapper""><div class=""position-box "" data-position=""1""></div></div><div class=""position-wrapper""><div class=""position-box active"" data-position=""2""></div></div><div class=""position-wrapper""><div class=""position-box "" data-position=""3""></div></div><div class=""position-wrapper""><div class=""position-box "" data-position=""4""></div></div><div class=""position-wrapper""><div class=""position-box "" data-position=""5""></div></div></div><div class=""finger-diagram-container"">
			<img src=""assets/finger-diagrams/finger-diagram-6pos.png"" alt=""Finger position guide"" class=""finger-diagram"" />
		</div>","null","","","","","","","","","",""
"","","","","","main","rsi","html-keyboard-response","82","190022","0.0-30.0-1.0","P_25fd27a22810e731f84862d3ad31e74c7e7a324148bec38e08e1b9c17c3a1822","697c608fb23a18f07d093e5b","697c6100620caba9b37f663e","6","60","1200","12","null","","<div class=""feedback-message""></div><div class=""stimulus-container""><div class=""position-wrapper""><div class=""position-box "" data-position=""0""></div></div><div class=""position-wrapper""><div class=""position-box "" data-position=""1""></div></div><div class=""position-wrapper""><div class=""position-box "" data-position=""2""></div></div><div class=""position-wrapper""><div class=""position-box "" data-position=""3""></div></div><div class=""position-wrapper""><div class=""position-box "" data-position=""4""></div></div><div class=""position-wrapper""><div class=""position-box "" data-position=""5""></div></div></div><div class=""finger-diagram-container"">
			<img src=""assets/finger-diagrams/finger-diagram-6pos.png"" alt=""Finger position guide"" class=""finger-diagram"" />
		</div>","null","","","","","","","","","",""
"","","","","","main","stimulus","html-keyboard-response","83","190522","0.0-31.0-0.0-0.0","P_25fd27a22810e731f84862d3ad31e74c7e7a324148bec38e08e1b9c17c3a1822","697c608fb23a18f07d093e5b","697c6100620caba9b37f663e","6","60","1200","12","497","","<div class=""feedback-message""></div><div class=""stimulus-container""><div class=""position-wrapper""><div class=""position-box "" data-position=""0""></div></div><div class=""position-wrapper""><div class=""position-box "" data-position=""1""></div></div><div class=""position-wrapper""><div class=""position-box "" data-position=""2""></div></div><div class=""position-wrapper""><div class=""position-box "" data-position=""3""></div></div><div class=""position-wrapper""><div class=""position-box "" data-position=""4""></div></div><div class=""position-wrapper""><div class=""position-box active"" data-position=""5""></div></div></div><div class=""finger-diagram-container"">
			<img src=""assets/finger-diagrams/finger-diagram-6pos.png"" alt=""Finger position guide"" class=""finger-diagram"" />
		</div>","l","5","l","1.7164586615480486","1.8672243003169464","true","0","14","14","",""
"","","","","","main","feedback","html-keyboard-response","84","190729","0.0-31.0-0.0-1.0","P_25fd27a22810e731f84862d3ad31e74c7e7a324148bec38e08e1b9c17c3a1822","697c608fb23a18f07d093e5b","697c6100620caba9b37f663e","6","60","1200","12","null","","<div class=""feedback-message""><div class=""feedback-correct"">✓</div></div><div class=""stimulus-container""><div class=""position-wrapper""><div class=""position-box "" data-position=""0""></div></div><div class=""position-wrapper""><div class=""position-box "" data-position=""1""></div></div><div class=""position-wrapper""><div class=""position-box "" data-position=""2""></div></div><div class=""position-wrapper""><div class=""position-box "" data-position=""3""></div></div><div class=""position-wrapper""><div class=""position-box "" data-position=""4""></div></div><div class=""position-wrapper""><div class=""position-box active"" data-position=""5""></div></div></div><div class=""finger-diagram-container"">
			<img src=""assets/finger-diagrams/finger-diagram-6pos.png"" alt=""Finger position guide"" class=""finger-diagram"" />
		</div>","null","","","","","","","","","",""
