"success","timeout","failed_images","failed_audio","failed_video","phase","experiment_trial_type","trial_type","trial_index","time_elapsed","internal_node_id","subject_id","study_id","session_id","matrix_size","trials_per_block","total_trials","practice_trials","rt","view_history","stimulus","response","position","correct_key","conditional_entropy","surprisal","correct","block","trial_in_block","overall_trial","question_order","questionnaire_item"
"true","false","[]","[]","[]","preload","preload","preload","0","899","0.0-0.0","P_2749db4e819c14215d1c0c31388930a93009a2b779ef485ec1ad95123b492a38","697c608fb23a18f07d093e5b","697c60fde52eec15e73e4c3c","6","60","1200","12","","","","","","","","","","","","","",""
"true","","","","","fullscreen","fullscreen","fullscreen","1","17237","0.0-1.0","P_2749db4e819c14215d1c0c31388930a93009a2b779ef485ec1ad95123b492a38","697c608fb23a18f07d093e5b","697c60fde52eec15e73e4c3c","6","60","1200","12","15318","","","","","","","","","","","","",""
"","","","","","instructions","instructions","instructions","2","162901","0.0-2.0","P_2749db4e819c14215d1c0c31388930a93009a2b779ef485ec1ad95123b492a38","697c608fb23a18f07d093e5b","697c60fde52eec15e73e4c3c","6","60","1200","12","145664","[{""page_index"":0,""viewing_time"":40914},{""page_index"":1,""viewing_time"":82379},{""page_index"":2,""viewing_time"":22370}]","","","","","","","","","","","",""
"","","","","","","","html-keyboard-response","3","193907","0.0-3.0","P_2749db4e819c14215d1c0c31388930a93009a2b779ef485ec1ad95123b492a38","697c608fb23a18f07d093e5b","697c60fde52eec15e73e4c3c","6","60","1200","12","31003","","
				<div class=""instruction-text"">
					<h2>Practice</h2>
					<p>You wil start with 12 practice trials to get familiar with the task.</p>
					<p><strong>Ready to practice? Please rest your fingers on these keys throughout the task, as demonstrated below:</strong></p>
					<img src=""assets/key-mappings-6pos.gif"" alt=""Key Mapping"" class=""key-mapping-image"" />
					<p style=""text-align: center;"">Press any key to begin the practice trials.</p>
				</div>"," ","","","","","","","","","",""
"","","","","","practice","stimulus","html-keyboard-response","4","197257","0.0-4.0-0.0-0.0","P_2749db4e819c14215d1c0c31388930a93009a2b779ef485ec1ad95123b492a38","697c608fb23a18f07d093e5b","697c60fde52eec15e73e4c3c","6","60","1200","12","3348","","<div class=""feedback-message""></div><div class=""stimulus-container""><div class=""position-wrapper""><div class=""key-label"">S</div><div class=""position-box active"" data-position=""0""></div></div><div class=""position-wrapper""><div class=""key-label"">D</div><div class=""position-box "" data-position=""1""></div></div><div class=""position-wrapper""><div class=""key-label"">F</div><div class=""position-box "" data-position=""2""></div></div><div class=""position-wrapper""><div class=""key-label"">J</div><div class=""position-box "" data-position=""3""></div></div><div class=""position-wrapper""><div class=""key-label"">K</div><div class=""position-box "" data-position=""4""></div></div><div class=""position-wrapper""><div class=""key-label"">L</div><div class=""position-box "" data-position=""5""></div></div></div><div class=""finger-diagram-container"">
			<img src=""assets/finger-diagrams/finger-diagram-6pos.png"" alt=""Finger position guide"" class=""finger-diagram"" />
		</div>","s","0","s","1.7163490803009984","null","true","","","","",""
"","","","","","practice","feedback","html-keyboard-response","5","197473","0.0-4.0-0.0-1.0","P_2749db4e819c14215d1c0c31388930a93009a2b779ef485ec1ad95123b492a38","697c608fb23a18f07d093e5b","697c60fde52eec15e73e4c3c","6","60","1200","12","null","","<div class=""feedback-message""><div class=""feedback-correct"">✓</div></div><div class=""stimulus-container""><div class=""position-wrapper""><div class=""key-label"">S</div><div class=""position-box active"" data-position=""0""></div></div><div class=""position-wrapper""><div class=""key-label"">D</div><div class=""position-box "" data-position=""1""></div></div><div class=""position-wrapper""><div class=""key-label"">F</div><div class=""position-box "" data-position=""2""></div></div><div class=""position-wrapper""><div class=""key-label"">J</div><div class=""position-box "" data-position=""3""></div></div><div class=""position-wrapper""><div class=""key-label"">K</div><div class=""position-box "" data-position=""4""></div></div><div class=""position-wrapper""><div class=""key-label"">L</div><div class=""position-box "" data-position=""5""></div></div></div><div class=""finger-diagram-container"">
			<img src=""assets/finger-diagrams/finger-diagram-6pos.png"" alt=""Finger position guide"" class=""finger-diagram"" />
		</div>","null","","","","","","","","","",""
"","","","","","practice","rsi","html-keyboard-response","6","197610","0.0-4.0-1.0","P_2749db4e819c14215d1c0c31388930a93009a2b779ef485ec1ad95123b492a38","697c608fb23a18f07d093e5b","697c60fde52eec15e73e4c3c","6","60","1200","12","null","","<div class=""feedback-message""></div><div class=""stimulus-container""><div class=""position-wrapper""><div class=""key-label"">S</div><div class=""position-box "" data-position=""0""></div></div><div class=""position-wrapper""><div class=""key-label"">D</div><div class=""position-box "" data-position=""1""></div></div><div class=""position-wrapper""><div class=""key-label"">F</div><div class=""position-box "" data-position=""2""></div></div><div class=""position-wrapper""><div class=""key-label"">J</div><div class=""position-box "" data-position=""3""></div></div><div class=""position-wrapper""><div class=""key-label"">K</div><div class=""position-box "" data-position=""4""></div></div><div class=""position-wrapper""><div class=""key-label"">L</div><div class=""position-box "" data-position=""5""></div></div></div><div class=""finger-diagram-container"">
			<img src=""assets/finger-diagrams/finger-diagram-6pos.png"" alt=""Finger position guide"" class=""finger-diagram"" />
		</div>","null","","","","","","","","","",""
"","","","","","practice","stimulus","html-keyboard-response","7","198843","0.0-5.0-0.0-0.0","P_2749db4e819c14215d1c0c31388930a93009a2b779ef485ec1ad95123b492a38","697c608fb23a18f07d093e5b","697c60fde52eec15e73e4c3c","6","60","1200","12","1231","","<div class=""feedback-message""></div><div class=""stimulus-container""><div class=""position-wrapper""><div class=""key-label"">S</div><div class=""position-box "" data-position=""0""></div></div><div class=""position-wrapper""><div class=""key-label"">D</div><div class=""position-box "" data-position=""1""></div></div><div class=""position-wrapper""><div class=""key-label"">F</div><div class=""position-box "" data-position=""2""></div></div><div class=""position-wrapper""><div class=""key-label"">J</div><div class=""position-box "" data-position=""3""></div></div><div class=""position-wrapper""><div class=""key-label"">K</div><div class=""position-box "" data-position=""4""></div></div><div class=""position-wrapper""><div class=""key-label"">L</div><div class=""position-box active"" data-position=""5""></div></div></div><div class=""finger-diagram-container"">
			<img src=""assets/finger-diagrams/finger-diagram-6pos.png"" alt=""Finger position guide"" class=""finger-diagram"" />
		</div>","l","5","l","1.9197818344737423","1.0067602970615734","true","","","","",""
"","","","","","practice","feedback","html-keyboard-response","8","199047","0.0-5.0-0.0-1.0","P_2749db4e819c14215d1c0c31388930a93009a2b779ef485ec1ad95123b492a38","697c608fb23a18f07d093e5b","697c60fde52eec15e73e4c3c","6","60","1200","12","null","","<div class=""feedback-message""><div class=""feedback-correct"">✓</div></div><div class=""stimulus-container""><div class=""position-wrapper""><div class=""key-label"">S</div><div class=""position-box "" data-position=""0""></div></div><div class=""position-wrapper""><div class=""key-label"">D</div><div class=""position-box "" data-position=""1""></div></div><div class=""position-wrapper""><div class=""key-label"">F</div><div class=""position-box "" data-position=""2""></div></div><div class=""position-wrapper""><div class=""key-label"">J</div><div class=""position-box "" data-position=""3""></div></div><div class=""position-wrapper""><div class=""key-label"">K</div><div class=""position-box "" data-position=""4""></div></div><div class=""position-wrapper""><div class=""key-label"">L</div><div class=""position-box active"" data-position=""5""></div></div></div><div class=""finger-diagram-container"">
			<img src=""assets/finger-diagrams/finger-diagram-6pos.png"" alt=""Finger position guide"" class=""finger-diagram"" />
		</div>","null","","","","","","","","","",""
"","","","","","practice","rsi","html-keyboard-response","9","199169","0.0-5.0-1.0","P_2749db4e819c14215d1c0c31388930a93009a2b779ef485ec1ad95123b492a38","697c608fb23a18f07d093e5b","697c60fde52eec15e73e4c3c","6","60","1200","12","null","","<div class=""feedback-message""></div><div class=""stimulus-container""><div class=""position-wrapper""><div class=""key-label"">S</div><div class=""position-box "" data-position=""0""></div></div><div class=""position-wrapper""><div class=""key-label"">D</div><div class=""position-box "" data-position=""1""></div></div><div class=""position-wrapper""><div class=""key-label"">F</div><div class=""position-box "" data-position=""2""></div></div><div class=""position-wrapper""><div class=""key-label"">J</div><div class=""position-box "" data-position=""3""></div></div><div class=""position-wrapper""><div class=""key-label"">K</div><div class=""position-box "" data-position=""4""></div></div><div class=""position-wrapper""><div class=""key-label"">L</div><div class=""position-box "" data-position=""5""></div></div></div><div class=""finger-diagram-container"">
			<img src=""assets/finger-diagrams/finger-diagram-6pos.png"" alt=""Finger position guide"" class=""finger-diagram"" />
		</div>","null","","","","","","","","","",""
"","","","","","practice","stimulus","html-keyboard-response","10","200851","0.0-6.0-0.0-0.0","P_2749db4e819c14215d1c0c31388930a93009a2b779ef485ec1ad95123b492a38","697c608fb23a18f07d093e5b","697c60fde52eec15e73e4c3c","6","60","1200","12","1679","","<div class=""feedback-message""></div><div class=""stimulus-container""><div class=""position-wrapper""><div class=""key-label"">S</div><div class=""position-box "" data-position=""0""></div></div><div class=""position-wrapper""><div class=""key-label"">D</div><div class=""position-box "" data-position=""1""></div></div><div class=""position-wrapper""><div class=""key-label"">F</div><div class=""position-box active"" data-position=""2""></div></div><div class=""position-wrapper""><div class=""key-label"">J</div><div class=""position-box "" data-position=""3""></div></div><div class=""position-wrapper""><div class=""key-label"">K</div><div class=""position-box "" data-position=""4""></div></div><div class=""position-wrapper""><div class=""key-label"">L</div><div class=""position-box "" data-position=""5""></div></div></div><div class=""finger-diagram-container"">
			<img src=""assets/finger-diagrams/finger-diagram-6pos.png"" alt=""Finger position guide"" class=""finger-diagram"" />
		</div>","f","2","f","0.6265709654819551","1.4191265827700734","true","","","","",""
"","","","","","practice","feedback","html-keyboard-response","11","201064","0.0-6.0-0.0-1.0","P_2749db4e819c14215d1c0c31388930a93009a2b779ef485ec1ad95123b492a38","697c608fb23a18f07d093e5b","697c60fde52eec15e73e4c3c","6","60","1200","12","null","","<div class=""feedback-message""><div class=""feedback-correct"">✓</div></div><div class=""stimulus-container""><div class=""position-wrapper""><div class=""key-label"">S</div><div class=""position-box "" data-position=""0""></div></div><div class=""position-wrapper""><div class=""key-label"">D</div><div class=""position-box "" data-position=""1""></div></div><div class=""position-wrapper""><div class=""key-label"">F</div><div class=""position-box active"" data-position=""2""></div></div><div class=""position-wrapper""><div class=""key-label"">J</div><div class=""position-box "" data-position=""3""></div></div><div class=""position-wrapper""><div class=""key-label"">K</div><div class=""position-box "" data-position=""4""></div></div><div class=""position-wrapper""><div class=""key-label"">L</div><div class=""position-box "" data-position=""5""></div></div></div><div class=""finger-diagram-container"">
			<img src=""assets/finger-diagrams/finger-diagram-6pos.png"" alt=""Finger position guide"" class=""finger-diagram"" />
		</div>","null","","","","","","","","","",""
"","","","","","practice","rsi","html-keyboard-response","12","201187","0.0-6.0-1.0","P_2749db4e819c14215d1c0c31388930a93009a2b779ef485ec1ad95123b492a38","697c608fb23a18f07d093e5b","697c60fde52eec15e73e4c3c","6","60","1200","12","null","","<div class=""feedback-message""></div><div class=""stimulus-container""><div class=""position-wrapper""><div class=""key-label"">S</div><div class=""position-box "" data-position=""0""></div></div><div class=""position-wrapper""><div class=""key-label"">D</div><div class=""position-box "" data-position=""1""></div></div><div class=""position-wrapper""><div class=""key-label"">F</div><div class=""position-box "" data-position=""2""></div></div><div class=""position-wrapper""><div class=""key-label"">J</div><div class=""position-box "" data-position=""3""></div></div><div class=""position-wrapper""><div class=""key-label"">K</div><div class=""position-box "" data-position=""4""></div></div><div class=""position-wrapper""><div class=""key-label"">L</div><div class=""position-box "" data-position=""5""></div></div></div><div class=""finger-diagram-container"">
			<img src=""assets/finger-diagrams/finger-diagram-6pos.png"" alt=""Finger position guide"" class=""finger-diagram"" />
		</div>","null","","","","","","","","","",""
"","","","","","practice","stimulus","html-keyboard-response","13","202255","0.0-7.0-0.0-0.0","P_2749db4e819c14215d1c0c31388930a93009a2b779ef485ec1ad95123b492a38","697c608fb23a18f07d093e5b","697c60fde52eec15e73e4c3c","6","60","1200","12","1066","","<div class=""feedback-message""></div><div class=""stimulus-container""><div class=""position-wrapper""><div class=""key-label"">S</div><div class=""position-box "" data-position=""0""></div></div><div class=""position-wrapper""><div class=""key-label"">D</div><div class=""position-box "" data-position=""1""></div></div><div class=""position-wrapper""><div class=""key-label"">F</div><div class=""position-box "" data-position=""2""></div></div><div class=""position-wrapper""><div class=""key-label"">J</div><div class=""position-box active"" data-position=""3""></div></div><div class=""position-wrapper""><div class=""key-label"">K</div><div class=""position-box "" data-position=""4""></div></div><div class=""position-wrapper""><div class=""key-label"">L</div><div class=""position-box "" data-position=""5""></div></div></div><div class=""finger-diagram-container"">
			<img src=""assets/finger-diagrams/finger-diagram-6pos.png"" alt=""Finger position guide"" class=""finger-diagram"" />
		</div>","j","3","j","0.09237731181353705","0.22743527250800727","true","","","","",""
"","","","","","practice","feedback","html-keyboard-response","14","202459","0.0-7.0-0.0-1.0","P_2749db4e819c14215d1c0c31388930a93009a2b779ef485ec1ad95123b492a38","697c608fb23a18f07d093e5b","697c60fde52eec15e73e4c3c","6","60","1200","12","null","","<div class=""feedback-message""><div class=""feedback-correct"">✓</div></div><div class=""stimulus-container""><div class=""position-wrapper""><div class=""key-label"">S</div><div class=""position-box "" data-position=""0""></div></div><div class=""position-wrapper""><div class=""key-label"">D</div><div class=""position-box "" data-position=""1""></div></div><div class=""position-wrapper""><div class=""key-label"">F</div><div class=""position-box "" data-position=""2""></div></div><div class=""position-wrapper""><div class=""key-label"">J</div><div class=""position-box active"" data-position=""3""></div></div><div class=""position-wrapper""><div class=""key-label"">K</div><div class=""position-box "" data-position=""4""></div></div><div class=""position-wrapper""><div class=""key-label"">L</div><div class=""position-box "" data-position=""5""></div></div></div><div class=""finger-diagram-container"">
			<img src=""assets/finger-diagrams/finger-diagram-6pos.png"" alt=""Finger position guide"" class=""finger-diagram"" />
		</div>","null","","","","","","","","","",""
"","","","","","practice","rsi","html-keyboard-response","15","202581","0.0-7.0-1.0","P_2749db4e819c14215d1c0c31388930a93009a2b779ef485ec1ad95123b492a38","697c608fb23a18f07d093e5b","697c60fde52eec15e73e4c3c","6","60","1200","12","null","","<div class=""feedback-message""></div><div class=""stimulus-container""><div class=""position-wrapper""><div class=""key-label"">S</div><div class=""position-box "" data-position=""0""></div></div><div class=""position-wrapper""><div class=""key-label"">D</div><div class=""position-box "" data-position=""1""></div></div><div class=""position-wrapper""><div class=""key-label"">F</div><div class=""position-box "" data-position=""2""></div></div><div class=""position-wrapper""><div class=""key-label"">J</div><div class=""position-box "" data-position=""3""></div></div><div class=""position-wrapper""><div class=""key-label"">K</div><div class=""position-box "" data-position=""4""></div></div><div class=""position-wrapper""><div class=""key-label"">L</div><div class=""position-box "" data-position=""5""></div></div></div><div class=""finger-diagram-container"">
			<img src=""assets/finger-diagrams/finger-diagram-6pos.png"" alt=""Finger position guide"" class=""finger-diagram"" />
		</div>","null","","","","","","","","","",""
"","","","","","practice","stimulus","html-keyboard-response","16","203508","0.0-8.0-0.0-0.0","P_2749db4e819c14215d1c0c31388930a93009a2b779ef485ec1ad95123b492a38","697c608fb23a18f07d093e5b","697c60fde52eec15e73e4c3c","6","60","1200","12","924","","<div class=""feedback-message""></div><div class=""stimulus-container""><div class=""position-wrapper""><div class=""key-label"">S</div><div class=""position-box "" data-position=""0""></div></div><div class=""position-wrapper""><div class=""key-label"">D</div><div class=""position-box "" data-position=""1""></div></div><div class=""position-wrapper""><div class=""key-label"">F</div><div class=""position-box "" data-position=""2""></div></div><div class=""position-wrapper""><div class=""key-label"">J</div><div class=""position-box "" data-position=""3""></div></div><div class=""position-wrapper""><div class=""key-label"">K</div><div class=""position-box active"" data-position=""4""></div></div><div class=""position-wrapper""><div class=""key-label"">L</div><div class=""position-box "" data-position=""5""></div></div></div><div class=""finger-diagram-container"">
			<img src=""assets/finger-diagrams/finger-diagram-6pos.png"" alt=""Finger position guide"" class=""finger-diagram"" />
		</div>","k","4","k","1.6016287006430234","6.407472371591219","true","","","","",""
"","","","","","practice","feedback","html-keyboard-response","17","203712","0.0-8.0-0.0-1.0","P_2749db4e819c14215d1c0c31388930a93009a2b779ef485ec1ad95123b492a38","697c608fb23a18f07d093e5b","697c60fde52eec15e73e4c3c","6","60","1200","12","null","","<div class=""feedback-message""><div class=""feedback-correct"">✓</div></div><div class=""stimulus-container""><div class=""position-wrapper""><div class=""key-label"">S</div><div class=""position-box "" data-position=""0""></div></div><div class=""position-wrapper""><div class=""key-label"">D</div><div class=""position-box "" data-position=""1""></div></div><div class=""position-wrapper""><div class=""key-label"">F</div><div class=""position-box "" data-position=""2""></div></div><div class=""position-wrapper""><div class=""key-label"">J</div><div class=""position-box "" data-position=""3""></div></div><div class=""position-wrapper""><div class=""key-label"">K</div><div class=""position-box active"" data-position=""4""></div></div><div class=""position-wrapper""><div class=""key-label"">L</div><div class=""position-box "" data-position=""5""></div></div></div><div class=""finger-diagram-container"">
			<img src=""assets/finger-diagrams/finger-diagram-6pos.png"" alt=""Finger position guide"" class=""finger-diagram"" />
		</div>","null","","","","","","","","","",""
"","","","","","practice","rsi","html-keyboard-response","18","203846","0.0-8.0-1.0","P_2749db4e819c14215d1c0c31388930a93009a2b779ef485ec1ad95123b492a38","697c608fb23a18f07d093e5b","697c60fde52eec15e73e4c3c","6","60","1200","12","null","","<div class=""feedback-message""></div><div class=""stimulus-container""><div class=""position-wrapper""><div class=""key-label"">S</div><div class=""position-box "" data-position=""0""></div></div><div class=""position-wrapper""><div class=""key-label"">D</div><div class=""position-box "" data-position=""1""></div></div><div class=""position-wrapper""><div class=""key-label"">F</div><div class=""position-box "" data-position=""2""></div></div><div class=""position-wrapper""><div class=""key-label"">J</div><div class=""position-box "" data-position=""3""></div></div><div class=""position-wrapper""><div class=""key-label"">K</div><div class=""position-box "" data-position=""4""></div></div><div class=""position-wrapper""><div class=""key-label"">L</div><div class=""position-box "" data-position=""5""></div></div></div><div class=""finger-diagram-container"">
			<img src=""assets/finger-diagrams/finger-diagram-6pos.png"" alt=""Finger position guide"" class=""finger-diagram"" />
		</div>","null","","","","","","","","","",""
"","","","","","practice","stimulus","html-keyboard-response","19","204706","0.0-9.0-0.0-0.0","P_2749db4e819c14215d1c0c31388930a93009a2b779ef485ec1ad95123b492a38","697c608fb23a18f07d093e5b","697c60fde52eec15e73e4c3c","6","60","1200","12","857","","<div class=""feedback-message""></div><div class=""stimulus-container""><div class=""position-wrapper""><div class=""key-label"">S</div><div class=""position-box "" data-position=""0""></div></div><div class=""position-wrapper""><div class=""key-label"">D</div><div class=""position-box active"" data-position=""1""></div></div><div class=""position-wrapper""><div class=""key-label"">F</div><div class=""position-box "" data-position=""2""></div></div><div class=""position-wrapper""><div class=""key-label"">J</div><div class=""position-box "" data-position=""3""></div></div><div class=""position-wrapper""><div class=""key-label"">K</div><div class=""position-box "" data-position=""4""></div></div><div class=""position-wrapper""><div class=""key-label"">L</div><div class=""position-box "" data-position=""5""></div></div></div><div class=""finger-diagram-container"">
			<img src=""assets/finger-diagrams/finger-diagram-6pos.png"" alt=""Finger position guide"" class=""finger-diagram"" />
		</div>","d","1","d","1.7164586615480486","1.8672243003169464","true","","","","",""
"","","","","","practice","feedback","html-keyboard-response","20","204917","0.0-9.0-0.0-1.0","P_2749db4e819c14215d1c0c31388930a93009a2b779ef485ec1ad95123b492a38","697c608fb23a18f07d093e5b","697c60fde52eec15e73e4c3c","6","60","1200","12","null","","<div class=""feedback-message""><div class=""feedback-correct"">✓</div></div><div class=""stimulus-container""><div class=""position-wrapper""><div class=""key-label"">S</div><div class=""position-box "" data-position=""0""></div></div><div class=""position-wrapper""><div class=""key-label"">D</div><div class=""position-box active"" data-position=""1""></div></div><div class=""position-wrapper""><div class=""key-label"">F</div><div class=""position-box "" data-position=""2""></div></div><div class=""position-wrapper""><div class=""key-label"">J</div><div class=""position-box "" data-position=""3""></div></div><div class=""position-wrapper""><div class=""key-label"">K</div><div class=""position-box "" data-position=""4""></div></div><div class=""position-wrapper""><div class=""key-label"">L</div><div class=""position-box "" data-position=""5""></div></div></div><div class=""finger-diagram-container"">
			<img src=""assets/finger-diagrams/finger-diagram-6pos.png"" alt=""Finger position guide"" class=""finger-diagram"" />
		</div>","null","","","","","","","","","",""
"","","","","","practice","rsi","html-keyboard-response","21","205049","0.0-9.0-1.0","P_2749db4e819c14215d1c0c31388930a93009a2b779ef485ec1ad95123b492a38","697c608fb23a18f07d093e5b","697c60fde52eec15e73e4c3c","6","60","1200","12","null","","<div class=""feedback-message""></div><div class=""stimulus-container""><div class=""position-wrapper""><div class=""key-label"">S</div><div class=""position-box "" data-position=""0""></div></div><div class=""position-wrapper""><div class=""key-label"">D</div><div class=""position-box "" data-position=""1""></div></div><div class=""position-wrapper""><div class=""key-label"">F</div><div class=""position-box "" data-position=""2""></div></div><div class=""position-wrapper""><div class=""key-label"">J</div><div class=""position-box "" data-position=""3""></div></div><div class=""position-wrapper""><div class=""key-label"">K</div><div class=""position-box "" data-position=""4""></div></div><div class=""position-wrapper""><div class=""key-label"">L</div><div class=""position-box "" data-position=""5""></div></div></div><div class=""finger-diagram-container"">
			<img src=""assets/finger-diagrams/finger-diagram-6pos.png"" alt=""Finger position guide"" class=""finger-diagram"" />
		</div>","null","","","","","","","","","",""
"","","","","","practice","stimulus","html-keyboard-response","22","205639","0.0-10.0-0.0-0.0","P_2749db4e819c14215d1c0c31388930a93009a2b779ef485ec1ad95123b492a38","697c608fb23a18f07d093e5b","697c60fde52eec15e73e4c3c","6","60","1200","12","589","","<div class=""feedback-message""></div><div class=""stimulus-container""><div class=""position-wrapper""><div class=""key-label"">S</div><div class=""position-box active"" data-position=""0""></div></div><div class=""position-wrapper""><div class=""key-label"">D</div><div class=""position-box "" data-position=""1""></div></div><div class=""position-wrapper""><div class=""key-label"">F</div><div class=""position-box "" data-position=""2""></div></div><div class=""position-wrapper""><div class=""key-label"">J</div><div class=""position-box "" data-position=""3""></div></div><div class=""position-wrapper""><div class=""key-label"">K</div><div class=""position-box "" data-position=""4""></div></div><div class=""position-wrapper""><div class=""key-label"">L</div><div class=""position-box "" data-position=""5""></div></div></div><div class=""finger-diagram-container"">
			<img src=""assets/finger-diagrams/finger-diagram-6pos.png"" alt=""Finger position guide"" class=""finger-diagram"" />
		</div>","s","0","s","1.7163490803009984","null","true","","","","",""
"","","","","","practice","feedback","html-keyboard-response","23","205847","0.0-10.0-0.0-1.0","P_2749db4e819c14215d1c0c31388930a93009a2b779ef485ec1ad95123b492a38","697c608fb23a18f07d093e5b","697c60fde52eec15e73e4c3c","6","60","1200","12","null","","<div class=""feedback-message""><div class=""feedback-correct"">✓</div></div><div class=""stimulus-container""><div class=""position-wrapper""><div class=""key-label"">S</div><div class=""position-box active"" data-position=""0""></div></div><div class=""position-wrapper""><div class=""key-label"">D</div><div class=""position-box "" data-position=""1""></div></div><div class=""position-wrapper""><div class=""key-label"">F</div><div class=""position-box "" data-position=""2""></div></div><div class=""position-wrapper""><div class=""key-label"">J</div><div class=""position-box "" data-position=""3""></div></div><div class=""position-wrapper""><div class=""key-label"">K</div><div class=""position-box "" data-position=""4""></div></div><div class=""position-wrapper""><div class=""key-label"">L</div><div class=""position-box "" data-position=""5""></div></div></div><div class=""finger-diagram-container"">
			<img src=""assets/finger-diagrams/finger-diagram-6pos.png"" alt=""Finger position guide"" class=""finger-diagram"" />
		</div>","null","","","","","","","","","",""
"","","","","","practice","rsi","html-keyboard-response","24","205979","0.0-10.0-1.0","P_2749db4e819c14215d1c0c31388930a93009a2b779ef485ec1ad95123b492a38","697c608fb23a18f07d093e5b","697c60fde52eec15e73e4c3c","6","60","1200","12","null","","<div class=""feedback-message""></div><div class=""stimulus-container""><div class=""position-wrapper""><div class=""key-label"">S</div><div class=""position-box "" data-position=""0""></div></div><div class=""position-wrapper""><div class=""key-label"">D</div><div class=""position-box "" data-position=""1""></div></div><div class=""position-wrapper""><div class=""key-label"">F</div><div class=""position-box "" data-position=""2""></div></div><div class=""position-wrapper""><div class=""key-label"">J</div><div class=""position-box "" data-position=""3""></div></div><div class=""position-wrapper""><div class=""key-label"">K</div><div class=""position-box "" data-position=""4""></div></div><div class=""position-wrapper""><div class=""key-label"">L</div><div class=""position-box "" data-position=""5""></div></div></div><div class=""finger-diagram-container"">
			<img src=""assets/finger-diagrams/finger-diagram-6pos.png"" alt=""Finger position guide"" class=""finger-diagram"" />
		</div>","null","","","","","","","","","",""
"","","","","","practice","stimulus","html-keyboard-response","25","206867","0.0-11.0-0.0-0.0","P_2749db4e819c14215d1c0c31388930a93009a2b779ef485ec1ad95123b492a38","697c608fb23a18f07d093e5b","697c60fde52eec15e73e4c3c","6","60","1200","12","886","","<div class=""feedback-message""></div><div class=""stimulus-container""><div class=""position-wrapper""><div class=""key-label"">S</div><div class=""position-box "" data-position=""0""></div></div><div class=""position-wrapper""><div class=""key-label"">D</div><div class=""position-box "" data-position=""1""></div></div><div class=""position-wrapper""><div class=""key-label"">F</div><div class=""position-box "" data-position=""2""></div></div><div class=""position-wrapper""><div class=""key-label"">J</div><div class=""position-box "" data-position=""3""></div></div><div class=""position-wrapper""><div class=""key-label"">K</div><div class=""position-box "" data-position=""4""></div></div><div class=""position-wrapper""><div class=""key-label"">L</div><div class=""position-box active"" data-position=""5""></div></div></div><div class=""finger-diagram-container"">
			<img src=""assets/finger-diagrams/finger-diagram-6pos.png"" alt=""Finger position guide"" class=""finger-diagram"" />
		</div>","l","5","l","1.9197818344737423","1.0067602970615734","true","","","","",""
"","","","","","practice","feedback","html-keyboard-response","26","207075","0.0-11.0-0.0-1.0","P_2749db4e819c14215d1c0c31388930a93009a2b779ef485ec1ad95123b492a38","697c608fb23a18f07d093e5b","697c60fde52eec15e73e4c3c","6","60","1200","12","null","","<div class=""feedback-message""><div class=""feedback-correct"">✓</div></div><div class=""stimulus-container""><div class=""position-wrapper""><div class=""key-label"">S</div><div class=""position-box "" data-position=""0""></div></div><div class=""position-wrapper""><div class=""key-label"">D</div><div class=""position-box "" data-position=""1""></div></div><div class=""position-wrapper""><div class=""key-label"">F</div><div class=""position-box "" data-position=""2""></div></div><div class=""position-wrapper""><div class=""key-label"">J</div><div class=""position-box "" data-position=""3""></div></div><div class=""position-wrapper""><div class=""key-label"">K</div><div class=""position-box "" data-position=""4""></div></div><div class=""position-wrapper""><div class=""key-label"">L</div><div class=""position-box active"" data-position=""5""></div></div></div><div class=""finger-diagram-container"">
			<img src=""assets/finger-diagrams/finger-diagram-6pos.png"" alt=""Finger position guide"" class=""finger-diagram"" />
		</div>","null","","","","","","","","","",""
"","","","","","practice","rsi","html-keyboard-response","27","207205","0.0-11.0-1.0","P_2749db4e819c14215d1c0c31388930a93009a2b779ef485ec1ad95123b492a38","697c608fb23a18f07d093e5b","697c60fde52eec15e73e4c3c","6","60","1200","12","null","","<div class=""feedback-message""></div><div class=""stimulus-container""><div class=""position-wrapper""><div class=""key-label"">S</div><div class=""position-box "" data-position=""0""></div></div><div class=""position-wrapper""><div class=""key-label"">D</div><div class=""position-box "" data-position=""1""></div></div><div class=""position-wrapper""><div class=""key-label"">F</div><div class=""position-box "" data-position=""2""></div></div><div class=""position-wrapper""><div class=""key-label"">J</div><div class=""position-box "" data-position=""3""></div></div><div class=""position-wrapper""><div class=""key-label"">K</div><div class=""position-box "" data-position=""4""></div></div><div class=""position-wrapper""><div class=""key-label"">L</div><div class=""position-box "" data-position=""5""></div></div></div><div class=""finger-diagram-container"">
			<img src=""assets/finger-diagrams/finger-diagram-6pos.png"" alt=""Finger position guide"" class=""finger-diagram"" />
		</div>","null","","","","","","","","","",""
"","","","","","practice","stimulus","html-keyboard-response","28","208379","0.0-12.0-0.0-0.0","P_2749db4e819c14215d1c0c31388930a93009a2b779ef485ec1ad95123b492a38","697c608fb23a18f07d093e5b","697c60fde52eec15e73e4c3c","6","60","1200","12","1172","","<div class=""feedback-message""></div><div class=""stimulus-container""><div class=""position-wrapper""><div class=""key-label"">S</div><div class=""position-box "" data-position=""0""></div></div><div class=""position-wrapper""><div class=""key-label"">D</div><div class=""position-box "" data-position=""1""></div></div><div class=""position-wrapper""><div class=""key-label"">F</div><div class=""position-box "" data-position=""2""></div></div><div class=""position-wrapper""><div class=""key-label"">J</div><div class=""position-box "" data-position=""3""></div></div><div class=""position-wrapper""><div class=""key-label"">K</div><div class=""position-box active"" data-position=""4""></div></div><div class=""position-wrapper""><div class=""key-label"">L</div><div class=""position-box "" data-position=""5""></div></div></div><div class=""finger-diagram-container"">
			<img src=""assets/finger-diagrams/finger-diagram-6pos.png"" alt=""Finger position guide"" class=""finger-diagram"" />
		</div>","k","4","k","1.6016287006430234","2.230037588621035","true","","","","",""
"","","","","","practice","feedback","html-keyboard-response","29","208581","0.0-12.0-0.0-1.0","P_2749db4e819c14215d1c0c31388930a93009a2b779ef485ec1ad95123b492a38","697c608fb23a18f07d093e5b","697c60fde52eec15e73e4c3c","6","60","1200","12","null","","<div class=""feedback-message""><div class=""feedback-correct"">✓</div></div><div class=""stimulus-container""><div class=""position-wrapper""><div class=""key-label"">S</div><div class=""position-box "" data-position=""0""></div></div><div class=""position-wrapper""><div class=""key-label"">D</div><div class=""position-box "" data-position=""1""></div></div><div class=""position-wrapper""><div class=""key-label"">F</div><div class=""position-box "" data-position=""2""></div></div><div class=""position-wrapper""><div class=""key-label"">J</div><div class=""position-box "" data-position=""3""></div></div><div class=""position-wrapper""><div class=""key-label"">K</div><div class=""position-box active"" data-position=""4""></div></div><div class=""position-wrapper""><div class=""key-label"">L</div><div class=""position-box "" data-position=""5""></div></div></div><div class=""finger-diagram-container"">
			<img src=""assets/finger-diagrams/finger-diagram-6pos.png"" alt=""Finger position guide"" class=""finger-diagram"" />
		</div>","null","","","","","","","","","",""
"","","","","","practice","rsi","html-keyboard-response","30","208714","0.0-12.0-1.0","P_2749db4e819c14215d1c0c31388930a93009a2b779ef485ec1ad95123b492a38","697c608fb23a18f07d093e5b","697c60fde52eec15e73e4c3c","6","60","1200","12","null","","<div class=""feedback-message""></div><div class=""stimulus-container""><div class=""position-wrapper""><div class=""key-label"">S</div><div class=""position-box "" data-position=""0""></div></div><div class=""position-wrapper""><div class=""key-label"">D</div><div class=""position-box "" data-position=""1""></div></div><div class=""position-wrapper""><div class=""key-label"">F</div><div class=""position-box "" data-position=""2""></div></div><div class=""position-wrapper""><div class=""key-label"">J</div><div class=""position-box "" data-position=""3""></div></div><div class=""position-wrapper""><div class=""key-label"">K</div><div class=""position-box "" data-position=""4""></div></div><div class=""position-wrapper""><div class=""key-label"">L</div><div class=""position-box "" data-position=""5""></div></div></div><div class=""finger-diagram-container"">
			<img src=""assets/finger-diagrams/finger-diagram-6pos.png"" alt=""Finger position guide"" class=""finger-diagram"" />
		</div>","null","","","","","","","","","",""
"","","","","","practice","stimulus","html-keyboard-response","31","209677","0.0-13.0-0.0-0.0","P_2749db4e819c14215d1c0c31388930a93009a2b779ef485ec1ad95123b492a38","697c608fb23a18f07d093e5b","697c60fde52eec15e73e4c3c","6","60","1200","12","961","","<div class=""feedback-message""></div><div class=""stimulus-container""><div class=""position-wrapper""><div class=""key-label"">S</div><div class=""position-box "" data-position=""0""></div></div><div class=""position-wrapper""><div class=""key-label"">D</div><div class=""position-box active"" data-position=""1""></div></div><div class=""position-wrapper""><div class=""key-label"">F</div><div class=""position-box "" data-position=""2""></div></div><div class=""position-wrapper""><div class=""key-label"">J</div><div class=""position-box "" data-position=""3""></div></div><div class=""position-wrapper""><div class=""key-label"">K</div><div class=""position-box "" data-position=""4""></div></div><div class=""position-wrapper""><div class=""key-label"">L</div><div class=""position-box "" data-position=""5""></div></div></div><div class=""finger-diagram-container"">
			<img src=""assets/finger-diagrams/finger-diagram-6pos.png"" alt=""Finger position guide"" class=""finger-diagram"" />
		</div>","d","1","d","1.7164586615480486","1.8672243003169464","true","","","","",""
"","","","","","practice","feedback","html-keyboard-response","32","209884","0.0-13.0-0.0-1.0","P_2749db4e819c14215d1c0c31388930a93009a2b779ef485ec1ad95123b492a38","697c608fb23a18f07d093e5b","697c60fde52eec15e73e4c3c","6","60","1200","12","null","","<div class=""feedback-message""><div class=""feedback-correct"">✓</div></div><div class=""stimulus-container""><div class=""position-wrapper""><div class=""key-label"">S</div><div class=""position-box "" data-position=""0""></div></div><div class=""position-wrapper""><div class=""key-label"">D</div><div class=""position-box active"" data-position=""1""></div></div><div class=""position-wrapper""><div class=""key-label"">F</div><div class=""position-box "" data-position=""2""></div></div><div class=""position-wrapper""><div class=""key-label"">J</div><div class=""position-box "" data-position=""3""></div></div><div class=""position-wrapper""><div class=""key-label"">K</div><div class=""position-box "" data-position=""4""></div></div><div class=""position-wrapper""><div class=""key-label"">L</div><div class=""position-box "" data-position=""5""></div></div></div><div class=""finger-diagram-container"">
			<img src=""assets/finger-diagrams/finger-diagram-6pos.png"" alt=""Finger position guide"" class=""finger-diagram"" />
		</div>","null","","","","","","","","","",""
"","","","","","practice","rsi","html-keyboard-response","33","210013","0.0-13.0-1.0","P_2749db4e819c14215d1c0c31388930a93009a2b779ef485ec1ad95123b492a38","697c608fb23a18f07d093e5b","697c60fde52eec15e73e4c3c","6","60","1200","12","null","","<div class=""feedback-message""></div><div class=""stimulus-container""><div class=""position-wrapper""><div class=""key-label"">S</div><div class=""position-box "" data-position=""0""></div></div><div class=""position-wrapper""><div class=""key-label"">D</div><div class=""position-box "" data-position=""1""></div></div><div class=""position-wrapper""><div class=""key-label"">F</div><div class=""position-box "" data-position=""2""></div></div><div class=""position-wrapper""><div class=""key-label"">J</div><div class=""position-box "" data-position=""3""></div></div><div class=""position-wrapper""><div class=""key-label"">K</div><div class=""position-box "" data-position=""4""></div></div><div class=""position-wrapper""><div class=""key-label"">L</div><div class=""position-box "" data-position=""5""></div></div></div><div class=""finger-diagram-container"">
			<img src=""assets/finger-diagrams/finger-diagram-6pos.png"" alt=""Finger position guide"" class=""finger-diagram"" />
		</div>","null","","","","","","","","","",""
"","","","","","practice","stimulus","html-keyboard-response","34","210970","0.0-14.0-0.0-0.0","P_2749db4e819c14215d1c0c31388930a93009a2b779ef485ec1ad95123b492a38","697c608fb23a18f07d093e5b","697c60fde52eec15e73e4c3c","6","60","1200","12","955","","<div class=""feedback-message""></div><div class=""stimulus-container""><div class=""position-wrapper""><div class=""key-label"">S</div><div class=""position-box "" data-position=""0""></div></div><div class=""position-wrapper""><div class=""key-label"">D</div><div class=""position-box "" data-position=""1""></div></div><div class=""position-wrapper""><div class=""key-label"">F</div><div class=""position-box "" data-position=""2""></div></div><div class=""position-wrapper""><div class=""key-label"">J</div><div class=""position-box active"" data-position=""3""></div></div><div class=""position-wrapper""><div class=""key-label"">K</div><div class=""position-box "" data-position=""4""></div></div><div class=""position-wrapper""><div class=""key-label"">L</div><div class=""position-box "" data-position=""5""></div></div></div><div class=""finger-diagram-container"">
			<img src=""assets/finger-diagrams/finger-diagram-6pos.png"" alt=""Finger position guide"" class=""finger-diagram"" />
		</div>","j","3","j","0.09237731181353705","36.01618095411356","true","","","","",""
"","","","","","practice","feedback","html-keyboard-response","35","211176","0.0-14.0-0.0-1.0","P_2749db4e819c14215d1c0c31388930a93009a2b779ef485ec1ad95123b492a38","697c608fb23a18f07d093e5b","697c60fde52eec15e73e4c3c","6","60","1200","12","null","","<div class=""feedback-message""><div class=""feedback-correct"">✓</div></div><div class=""stimulus-container""><div class=""position-wrapper""><div class=""key-label"">S</div><div class=""position-box "" data-position=""0""></div></div><div class=""position-wrapper""><div class=""key-label"">D</div><div class=""position-box "" data-position=""1""></div></div><div class=""position-wrapper""><div class=""key-label"">F</div><div class=""position-box "" data-position=""2""></div></div><div class=""position-wrapper""><div class=""key-label"">J</div><div class=""position-box active"" data-position=""3""></div></div><div class=""position-wrapper""><div class=""key-label"">K</div><div class=""position-box "" data-position=""4""></div></div><div class=""position-wrapper""><div class=""key-label"">L</div><div class=""position-box "" data-position=""5""></div></div></div><div class=""finger-diagram-container"">
			<img src=""assets/finger-diagrams/finger-diagram-6pos.png"" alt=""Finger position guide"" class=""finger-diagram"" />
		</div>","null","","","","","","","","","",""
"","","","","","practice","rsi","html-keyboard-response","36","211313","0.0-14.0-1.0","P_2749db4e819c14215d1c0c31388930a93009a2b779ef485ec1ad95123b492a38","697c608fb23a18f07d093e5b","697c60fde52eec15e73e4c3c","6","60","1200","12","null","","<div class=""feedback-message""></div><div class=""stimulus-container""><div class=""position-wrapper""><div class=""key-label"">S</div><div class=""position-box "" data-position=""0""></div></div><div class=""position-wrapper""><div class=""key-label"">D</div><div class=""position-box "" data-position=""1""></div></div><div class=""position-wrapper""><div class=""key-label"">F</div><div class=""position-box "" data-position=""2""></div></div><div class=""position-wrapper""><div class=""key-label"">J</div><div class=""position-box "" data-position=""3""></div></div><div class=""position-wrapper""><div class=""key-label"">K</div><div class=""position-box "" data-position=""4""></div></div><div class=""position-wrapper""><div class=""key-label"">L</div><div class=""position-box "" data-position=""5""></div></div></div><div class=""finger-diagram-container"">
			<img src=""assets/finger-diagrams/finger-diagram-6pos.png"" alt=""Finger position guide"" class=""finger-diagram"" />
		</div>","null","","","","","","","","","",""
"","","","","","practice","stimulus","html-keyboard-response","37","212305","0.0-15.0-0.0-0.0","P_2749db4e819c14215d1c0c31388930a93009a2b779ef485ec1ad95123b492a38","697c608fb23a18f07d093e5b","697c60fde52eec15e73e4c3c","6","60","1200","12","989","","<div class=""feedback-message""></div><div class=""stimulus-container""><div class=""position-wrapper""><div class=""key-label"">S</div><div class=""position-box "" data-position=""0""></div></div><div class=""position-wrapper""><div class=""key-label"">D</div><div class=""position-box "" data-position=""1""></div></div><div class=""position-wrapper""><div class=""key-label"">F</div><div class=""position-box active"" data-position=""2""></div></div><div class=""position-wrapper""><div class=""key-label"">J</div><div class=""position-box "" data-position=""3""></div></div><div class=""position-wrapper""><div class=""key-label"">K</div><div class=""position-box "" data-position=""4""></div></div><div class=""position-wrapper""><div class=""key-label"">L</div><div class=""position-box "" data-position=""5""></div></div></div><div class=""finger-diagram-container"">
			<img src=""assets/finger-diagrams/finger-diagram-6pos.png"" alt=""Finger position guide"" class=""finger-diagram"" />
		</div>","f","2","f","0.6265709654819551","33.97916644839635","true","","","","",""
"","","","","","practice","feedback","html-keyboard-response","38","212509","0.0-15.0-0.0-1.0","P_2749db4e819c14215d1c0c31388930a93009a2b779ef485ec1ad95123b492a38","697c608fb23a18f07d093e5b","697c60fde52eec15e73e4c3c","6","60","1200","12","null","","<div class=""feedback-message""><div class=""feedback-correct"">✓</div></div><div class=""stimulus-container""><div class=""position-wrapper""><div class=""key-label"">S</div><div class=""position-box "" data-position=""0""></div></div><div class=""position-wrapper""><div class=""key-label"">D</div><div class=""position-box "" data-position=""1""></div></div><div class=""position-wrapper""><div class=""key-label"">F</div><div class=""position-box active"" data-position=""2""></div></div><div class=""position-wrapper""><div class=""key-label"">J</div><div class=""position-box "" data-position=""3""></div></div><div class=""position-wrapper""><div class=""key-label"">K</div><div class=""position-box "" data-position=""4""></div></div><div class=""position-wrapper""><div class=""key-label"">L</div><div class=""position-box "" data-position=""5""></div></div></div><div class=""finger-diagram-container"">
			<img src=""assets/finger-diagrams/finger-diagram-6pos.png"" alt=""Finger position guide"" class=""finger-diagram"" />
		</div>","null","","","","","","","","","",""
"","","","","","practice","rsi","html-keyboard-response","39","212637","0.0-15.0-1.0","P_2749db4e819c14215d1c0c31388930a93009a2b779ef485ec1ad95123b492a38","697c608fb23a18f07d093e5b","697c60fde52eec15e73e4c3c","6","60","1200","12","null","","<div class=""feedback-message""></div><div class=""stimulus-container""><div class=""position-wrapper""><div class=""key-label"">S</div><div class=""position-box "" data-position=""0""></div></div><div class=""position-wrapper""><div class=""key-label"">D</div><div class=""position-box "" data-position=""1""></div></div><div class=""position-wrapper""><div class=""key-label"">F</div><div class=""position-box "" data-position=""2""></div></div><div class=""position-wrapper""><div class=""key-label"">J</div><div class=""position-box "" data-position=""3""></div></div><div class=""position-wrapper""><div class=""key-label"">K</div><div class=""position-box "" data-position=""4""></div></div><div class=""position-wrapper""><div class=""key-label"">L</div><div class=""position-box "" data-position=""5""></div></div></div><div class=""finger-diagram-container"">
			<img src=""assets/finger-diagrams/finger-diagram-6pos.png"" alt=""Finger position guide"" class=""finger-diagram"" />
		</div>","null","","","","","","","","","",""
"","","","","","practice","practice_end","html-keyboard-response","40","229045","0.0-16.0","P_2749db4e819c14215d1c0c31388930a93009a2b779ef485ec1ad95123b492a38","697c608fb23a18f07d093e5b","697c60fde52eec15e73e4c3c","6","60","1200","12","16404","","
                <div class=""instruction-text"">
                    <h2>Practice Complete!</h2>
                    <p>You got 12 out of 12 trials correct.</p>
                    <p>Remember: Respond as quickly and accurately as possible.</p>
					<p>Now, you will complete 20 blocks of 60 trials.</p>
                    <p>Between blocks, you will get a break to rest.</p>
                    <p>The entire task takes about 26 minutes.</p>
                    <p><strong>The main task will now begin. Press the spacebar to start.</strong></p>
                </div>
            "," ","","","","","","","","","",""
"","","","","","main","stimulus","html-keyboard-response","41","230378","0.0-17.0-0.0-0.0","P_2749db4e819c14215d1c0c31388930a93009a2b779ef485ec1ad95123b492a38","697c608fb23a18f07d093e5b","697c60fde52eec15e73e4c3c","6","60","1200","12","1331","","<div class=""feedback-message""></div><div class=""stimulus-container""><div class=""position-wrapper""><div class=""position-box active"" data-position=""0""></div></div><div class=""position-wrapper""><div class=""position-box "" data-position=""1""></div></div><div class=""position-wrapper""><div class=""position-box "" data-position=""2""></div></div><div class=""position-wrapper""><div class=""position-box "" data-position=""3""></div></div><div class=""position-wrapper""><div class=""position-box "" data-position=""4""></div></div><div class=""position-wrapper""><div class=""position-box "" data-position=""5""></div></div></div><div class=""finger-diagram-container"">
			<img src=""assets/finger-diagrams/finger-diagram-6pos.png"" alt=""Finger position guide"" class=""finger-diagram"" />
		</div>","s","0","s","1.7163490803009984","null","true","0","0","0","",""
"","","","","","main","feedback","html-keyboard-response","42","230616","0.0-17.0-0.0-1.0","P_2749db4e819c14215d1c0c31388930a93009a2b779ef485ec1ad95123b492a38","697c608fb23a18f07d093e5b","697c60fde52eec15e73e4c3c","6","60","1200","12","null","","<div class=""feedback-message""><div class=""feedback-correct"">✓</div></div><div class=""stimulus-container""><div class=""position-wrapper""><div class=""position-box active"" data-position=""0""></div></div><div class=""position-wrapper""><div class=""position-box "" data-position=""1""></div></div><div class=""position-wrapper""><div class=""position-box "" data-position=""2""></div></div><div class=""position-wrapper""><div class=""position-box "" data-position=""3""></div></div><div class=""position-wrapper""><div class=""position-box "" data-position=""4""></div></div><div class=""position-wrapper""><div class=""position-box "" data-position=""5""></div></div></div><div class=""finger-diagram-container"">
			<img src=""assets/finger-diagrams/finger-diagram-6pos.png"" alt=""Finger position guide"" class=""finger-diagram"" />
		</div>","null","","","","","","","","","",""
"","","","","","main","rsi","html-keyboard-response","43","230747","0.0-17.0-1.0","P_2749db4e819c14215d1c0c31388930a93009a2b779ef485ec1ad95123b492a38","697c608fb23a18f07d093e5b","697c60fde52eec15e73e4c3c","6","60","1200","12","null","","<div class=""feedback-message""></div><div class=""stimulus-container""><div class=""position-wrapper""><div class=""position-box "" data-position=""0""></div></div><div class=""position-wrapper""><div class=""position-box "" data-position=""1""></div></div><div class=""position-wrapper""><div class=""position-box "" data-position=""2""></div></div><div class=""position-wrapper""><div class=""position-box "" data-position=""3""></div></div><div class=""position-wrapper""><div class=""position-box "" data-position=""4""></div></div><div class=""position-wrapper""><div class=""position-box "" data-position=""5""></div></div></div><div class=""finger-diagram-container"">
			<img src=""assets/finger-diagrams/finger-diagram-6pos.png"" alt=""Finger position guide"" class=""finger-diagram"" />
		</div>","null","","","","","","","","","",""
"","","","","","main","stimulus","html-keyboard-response","44","231532","0.0-18.0-0.0-0.0","P_2749db4e819c14215d1c0c31388930a93009a2b779ef485ec1ad95123b492a38","697c608fb23a18f07d093e5b","697c60fde52eec15e73e4c3c","6","60","1200","12","782","","<div class=""feedback-message""></div><div class=""stimulus-container""><div class=""position-wrapper""><div class=""position-box "" data-position=""0""></div></div><div class=""position-wrapper""><div class=""position-box active"" data-position=""1""></div></div><div class=""position-wrapper""><div class=""position-box "" data-position=""2""></div></div><div class=""position-wrapper""><div class=""position-box "" data-position=""3""></div></div><div class=""position-wrapper""><div class=""position-box "" data-position=""4""></div></div><div class=""position-wrapper""><div class=""position-box "" data-position=""5""></div></div></div><div class=""finger-diagram-container"">
			<img src=""assets/finger-diagrams/finger-diagram-6pos.png"" alt=""Finger position guide"" class=""finger-diagram"" />
		</div>","d","1","d","1.7164586615480486","2.137181670080976","true","0","1","1","",""
"","","","","","main","feedback","html-keyboard-response","45","231746","0.0-18.0-0.0-1.0","P_2749db4e819c14215d1c0c31388930a93009a2b779ef485ec1ad95123b492a38","697c608fb23a18f07d093e5b","697c60fde52eec15e73e4c3c","6","60","1200","12","null","","<div class=""feedback-message""><div class=""feedback-correct"">✓</div></div><div class=""stimulus-container""><div class=""position-wrapper""><div class=""position-box "" data-position=""0""></div></div><div class=""position-wrapper""><div class=""position-box active"" data-position=""1""></div></div><div class=""position-wrapper""><div class=""position-box "" data-position=""2""></div></div><div class=""position-wrapper""><div class=""position-box "" data-position=""3""></div></div><div class=""position-wrapper""><div class=""position-box "" data-position=""4""></div></div><div class=""position-wrapper""><div class=""position-box "" data-position=""5""></div></div></div><div class=""finger-diagram-container"">
			<img src=""assets/finger-diagrams/finger-diagram-6pos.png"" alt=""Finger position guide"" class=""finger-diagram"" />
		</div>","null","","","","","","","","","",""
"","","","","","main","rsi","html-keyboard-response","46","231878","0.0-18.0-1.0","P_2749db4e819c14215d1c0c31388930a93009a2b779ef485ec1ad95123b492a38","697c608fb23a18f07d093e5b","697c60fde52eec15e73e4c3c","6","60","1200","12","null","","<div class=""feedback-message""></div><div class=""stimulus-container""><div class=""position-wrapper""><div class=""position-box "" data-position=""0""></div></div><div class=""position-wrapper""><div class=""position-box "" data-position=""1""></div></div><div class=""position-wrapper""><div class=""position-box "" data-position=""2""></div></div><div class=""position-wrapper""><div class=""position-box "" data-position=""3""></div></div><div class=""position-wrapper""><div class=""position-box "" data-position=""4""></div></div><div class=""position-wrapper""><div class=""position-box "" data-position=""5""></div></div></div><div class=""finger-diagram-container"">
			<img src=""assets/finger-diagrams/finger-diagram-6pos.png"" alt=""Finger position guide"" class=""finger-diagram"" />
		</div>","null","","","","","","","","","",""
"","","","","","main","stimulus","html-keyboard-response","47","232765","0.0-19.0-0.0-0.0","P_2749db4e819c14215d1c0c31388930a93009a2b779ef485ec1ad95123b492a38","697c608fb23a18f07d093e5b","697c60fde52eec15e73e4c3c","6","60","1200","12","885","","<div class=""feedback-message""></div><div class=""stimulus-container""><div class=""position-wrapper""><div class=""position-box "" data-position=""0""></div></div><div class=""position-wrapper""><div class=""position-box "" data-position=""1""></div></div><div class=""position-wrapper""><div class=""position-box "" data-position=""2""></div></div><div class=""position-wrapper""><div class=""position-box "" data-position=""3""></div></div><div class=""position-wrapper""><div class=""position-box "" data-position=""4""></div></div><div class=""position-wrapper""><div class=""position-box active"" data-position=""5""></div></div></div><div class=""finger-diagram-container"">
			<img src=""assets/finger-diagrams/finger-diagram-6pos.png"" alt=""Finger position guide"" class=""finger-diagram"" />
		</div>","l","5","l","1.9197818344737423","1.00700334797659","true","0","2","2","",""
"","","","","","main","feedback","html-keyboard-response","48","232966","0.0-19.0-0.0-1.0","P_2749db4e819c14215d1c0c31388930a93009a2b779ef485ec1ad95123b492a38","697c608fb23a18f07d093e5b","697c60fde52eec15e73e4c3c","6","60","1200","12","null","","<div class=""feedback-message""><div class=""feedback-correct"">✓</div></div><div class=""stimulus-container""><div class=""position-wrapper""><div class=""position-box "" data-position=""0""></div></div><div class=""position-wrapper""><div class=""position-box "" data-position=""1""></div></div><div class=""position-wrapper""><div class=""position-box "" data-position=""2""></div></div><div class=""position-wrapper""><div class=""position-box "" data-position=""3""></div></div><div class=""position-wrapper""><div class=""position-box "" data-position=""4""></div></div><div class=""position-wrapper""><div class=""position-box active"" data-position=""5""></div></div></div><div class=""finger-diagram-container"">
			<img src=""assets/finger-diagrams/finger-diagram-6pos.png"" alt=""Finger position guide"" class=""finger-diagram"" />
		</div>","null","","","","","","","","","",""
"","","","","","main","rsi","html-keyboard-response","49","233094","0.0-19.0-1.0","P_2749db4e819c14215d1c0c31388930a93009a2b779ef485ec1ad95123b492a38","697c608fb23a18f07d093e5b","697c60fde52eec15e73e4c3c","6","60","1200","12","null","","<div class=""feedback-message""></div><div class=""stimulus-container""><div class=""position-wrapper""><div class=""position-box "" data-position=""0""></div></div><div class=""position-wrapper""><div class=""position-box "" data-position=""1""></div></div><div class=""position-wrapper""><div class=""position-box "" data-position=""2""></div></div><div class=""position-wrapper""><div class=""position-box "" data-position=""3""></div></div><div class=""position-wrapper""><div class=""position-box "" data-position=""4""></div></div><div class=""position-wrapper""><div class=""position-box "" data-position=""5""></div></div></div><div class=""finger-diagram-container"">
			<img src=""assets/finger-diagrams/finger-diagram-6pos.png"" alt=""Finger position guide"" class=""finger-diagram"" />
		</div>","null","","","","","","","","","",""
"","","","","","main","stimulus","html-keyboard-response","50","233802","0.0-20.0-0.0-0.0","P_2749db4e819c14215d1c0c31388930a93009a2b779ef485ec1ad95123b492a38","697c608fb23a18f07d093e5b","697c60fde52eec15e73e4c3c","6","60","1200","12","706","","<div class=""feedback-message""></div><div class=""stimulus-container""><div class=""position-wrapper""><div class=""position-box "" data-position=""0""></div></div><div class=""position-wrapper""><div class=""position-box active"" data-position=""1""></div></div><div class=""position-wrapper""><div class=""position-box "" data-position=""2""></div></div><div class=""position-wrapper""><div class=""position-box "" data-position=""3""></div></div><div class=""position-wrapper""><div class=""position-box "" data-position=""4""></div></div><div class=""position-wrapper""><div class=""position-box "" data-position=""5""></div></div></div><div class=""finger-diagram-container"">
			<img src=""assets/finger-diagrams/finger-diagram-6pos.png"" alt=""Finger position guide"" class=""finger-diagram"" />
		</div>","d","1","d","1.7164586615480486","1.9047769601464493","true","0","3","3","",""
"","","","","","main","feedback","html-keyboard-response","51","234009","0.0-20.0-0.0-1.0","P_2749db4e819c14215d1c0c31388930a93009a2b779ef485ec1ad95123b492a38","697c608fb23a18f07d093e5b","697c60fde52eec15e73e4c3c","6","60","1200","12","null","","<div class=""feedback-message""><div class=""feedback-correct"">✓</div></div><div class=""stimulus-container""><div class=""position-wrapper""><div class=""position-box "" data-position=""0""></div></div><div class=""position-wrapper""><div class=""position-box active"" data-position=""1""></div></div><div class=""position-wrapper""><div class=""position-box "" data-position=""2""></div></div><div class=""position-wrapper""><div class=""position-box "" data-position=""3""></div></div><div class=""position-wrapper""><div class=""position-box "" data-position=""4""></div></div><div class=""position-wrapper""><div class=""position-box "" data-position=""5""></div></div></div><div class=""finger-diagram-container"">
			<img src=""assets/finger-diagrams/finger-diagram-6pos.png"" alt=""Finger position guide"" class=""finger-diagram"" />
		</div>","null","","","","","","","","","",""
"","","","","","main","rsi","html-keyboard-response","52","234145","0.0-20.0-1.0","P_2749db4e819c14215d1c0c31388930a93009a2b779ef485ec1ad95123b492a38","697c608fb23a18f07d093e5b","697c60fde52eec15e73e4c3c","6","60","1200","12","null","","<div class=""feedback-message""></div><div class=""stimulus-container""><div class=""position-wrapper""><div class=""position-box "" data-position=""0""></div></div><div class=""position-wrapper""><div class=""position-box "" data-position=""1""></div></div><div class=""position-wrapper""><div class=""position-box "" data-position=""2""></div></div><div class=""position-wrapper""><div class=""position-box "" data-position=""3""></div></div><div class=""position-wrapper""><div class=""position-box "" data-position=""4""></div></div><div class=""position-wrapper""><div class=""position-box "" data-position=""5""></div></div></div><div class=""finger-diagram-container"">
			<img src=""assets/finger-diagrams/finger-diagram-6pos.png"" alt=""Finger position guide"" class=""finger-diagram"" />
		</div>","null","","","","","","","","","",""
"","","","","","main","stimulus","html-keyboard-response","53","234782","0.0-21.0-0.0-0.0","P_2749db4e819c14215d1c0c31388930a93009a2b779ef485ec1ad95123b492a38","697c608fb23a18f07d093e5b","697c60fde52eec15e73e4c3c","6","60","1200","12","636","","<div class=""feedback-message""></div><div class=""stimulus-container""><div class=""position-wrapper""><div class=""position-box "" data-position=""0""></div></div><div class=""position-wrapper""><div class=""position-box "" data-position=""1""></div></div><div class=""position-wrapper""><div class=""position-box "" data-position=""2""></div></div><div class=""position-wrapper""><div class=""position-box "" data-position=""3""></div></div><div class=""position-wrapper""><div class=""position-box "" data-position=""4""></div></div><div class=""position-wrapper""><div class=""position-box active"" data-position=""5""></div></div></div><div class=""finger-diagram-container"">
			<img src=""assets/finger-diagrams/finger-diagram-6pos.png"" alt=""Finger position guide"" class=""finger-diagram"" />
		</div>","l","5","l","1.9197818344737423","1.00700334797659","true","0","4","4","",""
"","","","","","main","feedback","html-keyboard-response","54","234997","0.0-21.0-0.0-1.0","P_2749db4e819c14215d1c0c31388930a93009a2b779ef485ec1ad95123b492a38","697c608fb23a18f07d093e5b","697c60fde52eec15e73e4c3c","6","60","1200","12","null","","<div class=""feedback-message""><div class=""feedback-correct"">✓</div></div><div class=""stimulus-container""><div class=""position-wrapper""><div class=""position-box "" data-position=""0""></div></div><div class=""position-wrapper""><div class=""position-box "" data-position=""1""></div></div><div class=""position-wrapper""><div class=""position-box "" data-position=""2""></div></div><div class=""position-wrapper""><div class=""position-box "" data-position=""3""></div></div><div class=""position-wrapper""><div class=""position-box "" data-position=""4""></div></div><div class=""position-wrapper""><div class=""position-box active"" data-position=""5""></div></div></div><div class=""finger-diagram-container"">
			<img src=""assets/finger-diagrams/finger-diagram-6pos.png"" alt=""Finger position guide"" class=""finger-diagram"" />
		</div>","null","","","","","","","","","",""
"","","","","","main","rsi","html-keyboard-response","55","235133","0.0-21.0-1.0","P_2749db4e819c14215d1c0c31388930a93009a2b779ef485ec1ad95123b492a38","697c608fb23a18f07d093e5b","697c60fde52eec15e73e4c3c","6","60","1200","12","null","","<div class=""feedback-message""></div><div class=""stimulus-container""><div class=""position-wrapper""><div class=""position-box "" data-position=""0""></div></div><div class=""position-wrapper""><div class=""position-box "" data-position=""1""></div></div><div class=""position-wrapper""><div class=""position-box "" data-position=""2""></div></div><div class=""position-wrapper""><div class=""position-box "" data-position=""3""></div></div><div class=""position-wrapper""><div class=""position-box "" data-position=""4""></div></div><div class=""position-wrapper""><div class=""position-box "" data-position=""5""></div></div></div><div class=""finger-diagram-container"">
			<img src=""assets/finger-diagrams/finger-diagram-6pos.png"" alt=""Finger position guide"" class=""finger-diagram"" />
		</div>","null","","","","","","","","","",""
"","","","","","main","stimulus","html-keyboard-response","56","235895","0.0-22.0-0.0-0.0","P_2749db4e819c14215d1c0c31388930a93009a2b779ef485ec1ad95123b492a38","697c608fb23a18f07d093e5b","697c60fde52eec15e73e4c3c","6","60","1200","12","760","","<div class=""feedback-message""></div><div class=""stimulus-container""><div class=""position-wrapper""><div class=""position-box "" data-position=""0""></div></div><div class=""position-wrapper""><div class=""position-box active"" data-position=""1""></div></div><div class=""position-wrapper""><div class=""position-box "" data-position=""2""></div></div><div class=""position-wrapper""><div class=""position-box "" data-position=""3""></div></div><div class=""position-wrapper""><div class=""position-box "" data-position=""4""></div></div><div class=""position-wrapper""><div class=""position-box "" data-position=""5""></div></div></div><div class=""finger-diagram-container"">
			<img src=""assets/finger-diagrams/finger-diagram-6pos.png"" alt=""Finger position guide"" class=""finger-diagram"" />
		</div>","d","1","d","1.7164586615480486","1.9047769601464493","true","0","5","5","",""
"","","","","","main","feedback","html-keyboard-response","57","236098","0.0-22.0-0.0-1.0","P_2749db4e819c14215d1c0c31388930a93009a2b779ef485ec1ad95123b492a38","697c608fb23a18f07d093e5b","697c60fde52eec15e73e4c3c","6","60","1200","12","null","","<div class=""feedback-message""><div class=""feedback-correct"">✓</div></div><div class=""stimulus-container""><div class=""position-wrapper""><div class=""position-box "" data-position=""0""></div></div><div class=""position-wrapper""><div class=""position-box active"" data-position=""1""></div></div><div class=""position-wrapper""><div class=""position-box "" data-position=""2""></div></div><div class=""position-wrapper""><div class=""position-box "" data-position=""3""></div></div><div class=""position-wrapper""><div class=""position-box "" data-position=""4""></div></div><div class=""position-wrapper""><div class=""position-box "" data-position=""5""></div></div></div><div class=""finger-diagram-container"">
			<img src=""assets/finger-diagrams/finger-diagram-6pos.png"" alt=""Finger position guide"" class=""finger-diagram"" />
		</div>","null","","","","","","","","","",""
"","","","","","main","rsi","html-keyboard-response","58","236234","0.0-22.0-1.0","P_2749db4e819c14215d1c0c31388930a93009a2b779ef485ec1ad95123b492a38","697c608fb23a18f07d093e5b","697c60fde52eec15e73e4c3c","6","60","1200","12","null","","<div class=""feedback-message""></div><div class=""stimulus-container""><div class=""position-wrapper""><div class=""position-box "" data-position=""0""></div></div><div class=""position-wrapper""><div class=""position-box "" data-position=""1""></div></div><div class=""position-wrapper""><div class=""position-box "" data-position=""2""></div></div><div class=""position-wrapper""><div class=""position-box "" data-position=""3""></div></div><div class=""position-wrapper""><div class=""position-box "" data-position=""4""></div></div><div class=""position-wrapper""><div class=""position-box "" data-position=""5""></div></div></div><div class=""finger-diagram-container"">
			<img src=""assets/finger-diagrams/finger-diagram-6pos.png"" alt=""Finger position guide"" class=""finger-diagram"" />
		</div>","null","","","","","","","","","",""
"","","","","","main","stimulus","html-keyboard-response","59","237065","0.0-23.0-0.0-0.0","P_2749db4e819c14215d1c0c31388930a93009a2b779ef485ec1ad95123b492a38","697c608fb23a18f07d093e5b","697c60fde52eec15e73e4c3c","6","60","1200","12","830","","<div class=""feedback-message""></div><div class=""stimulus-container""><div class=""position-wrapper""><div class=""position-box "" data-position=""0""></div></div><div class=""position-wrapper""><div class=""position-box "" data-position=""1""></div></div><div class=""position-wrapper""><div class=""position-box active"" data-position=""2""></div></div><div class=""position-wrapper""><div class=""position-box "" data-position=""3""></div></div><div class=""position-wrapper""><div class=""position-box "" data-position=""4""></div></div><div class=""position-wrapper""><div class=""position-box "" data-position=""5""></div></div></div><div class=""finger-diagram-container"">
			<img src=""assets/finger-diagrams/finger-diagram-6pos.png"" alt=""Finger position guide"" class=""finger-diagram"" />
		</div>","g","2","f","0.6265709654819551","3.938894617823454","false","0","6","6","",""
"","","","","","main","feedback","html-keyboard-response","60","237468","0.0-23.0-0.0-1.0","P_2749db4e819c14215d1c0c31388930a93009a2b779ef485ec1ad95123b492a38","697c608fb23a18f07d093e5b","697c60fde52eec15e73e4c3c","6","60","1200","12","null","","<div class=""feedback-message""><div class=""feedback-error"">✗<br>Try again!</div></div><div class=""stimulus-container""><div class=""position-wrapper""><div class=""key-label"">S</div><div class=""position-box "" data-position=""0""></div></div><div class=""position-wrapper""><div class=""key-label"">D</div><div class=""position-box "" data-position=""1""></div></div><div class=""position-wrapper""><div class=""key-label"">F</div><div class=""position-box active"" data-position=""2""></div></div><div class=""position-wrapper""><div class=""key-label"">J</div><div class=""position-box "" data-position=""3""></div></div><div class=""position-wrapper""><div class=""key-label"">K</div><div class=""position-box "" data-position=""4""></div></div><div class=""position-wrapper""><div class=""key-label"">L</div><div class=""position-box "" data-position=""5""></div></div></div><div class=""finger-diagram-container"">
			<img src=""assets/finger-diagrams/finger-diagram-6pos.png"" alt=""Finger position guide"" class=""finger-diagram"" />
		</div>","null","","","","","","","","","",""
"","","","","","main","retry","html-keyboard-response","61","238856","0.0-23.0-0.1-0.1","P_2749db4e819c14215d1c0c31388930a93009a2b779ef485ec1ad95123b492a38","697c608fb23a18f07d093e5b","697c60fde52eec15e73e4c3c","6","60","1200","12","1387","","<div class=""feedback-message""></div><div class=""stimulus-container""><div class=""position-wrapper""><div class=""key-label"">S</div><div class=""position-box "" data-position=""0""></div></div><div class=""position-wrapper""><div class=""key-label"">D</div><div class=""position-box "" data-position=""1""></div></div><div class=""position-wrapper""><div class=""key-label"">F</div><div class=""position-box active"" data-position=""2""></div></div><div class=""position-wrapper""><div class=""key-label"">J</div><div class=""position-box "" data-position=""3""></div></div><div class=""position-wrapper""><div class=""key-label"">K</div><div class=""position-box "" data-position=""4""></div></div><div class=""position-wrapper""><div class=""key-label"">L</div><div class=""position-box "" data-position=""5""></div></div></div><div class=""finger-diagram-container"">
			<img src=""assets/finger-diagrams/finger-diagram-6pos.png"" alt=""Finger position guide"" class=""finger-diagram"" />
		</div>","f","2","f","0.6265709654819551","3.938894617823454","true","0","6","6","",""
"","","","","","main","feedback","html-keyboard-response","62","239063","0.0-23.0-0.1-1.1","P_2749db4e819c14215d1c0c31388930a93009a2b779ef485ec1ad95123b492a38","697c608fb23a18f07d093e5b","697c60fde52eec15e73e4c3c","6","60","1200","12","null","","<div class=""feedback-message""><div class=""feedback-correct"">✓</div></div><div class=""stimulus-container""><div class=""position-wrapper""><div class=""position-box "" data-position=""0""></div></div><div class=""position-wrapper""><div class=""position-box "" data-position=""1""></div></div><div class=""position-wrapper""><div class=""position-box active"" data-position=""2""></div></div><div class=""position-wrapper""><div class=""position-box "" data-position=""3""></div></div><div class=""position-wrapper""><div class=""position-box "" data-position=""4""></div></div><div class=""position-wrapper""><div class=""position-box "" data-position=""5""></div></div></div><div class=""finger-diagram-container"">
			<img src=""assets/finger-diagrams/finger-diagram-6pos.png"" alt=""Finger position guide"" class=""finger-diagram"" />
		</div>","null","","","","","","","","","",""
"","","","","","main","rsi","html-keyboard-response","63","239191","0.0-23.0-1.0","P_2749db4e819c14215d1c0c31388930a93009a2b779ef485ec1ad95123b492a38","697c608fb23a18f07d093e5b","697c60fde52eec15e73e4c3c","6","60","1200","12","null","","<div class=""feedback-message""></div><div class=""stimulus-container""><div class=""position-wrapper""><div class=""position-box "" data-position=""0""></div></div><div class=""position-wrapper""><div class=""position-box "" data-position=""1""></div></div><div class=""position-wrapper""><div class=""position-box "" data-position=""2""></div></div><div class=""position-wrapper""><div class=""position-box "" data-position=""3""></div></div><div class=""position-wrapper""><div class=""position-box "" data-position=""4""></div></div><div class=""position-wrapper""><div class=""position-box "" data-position=""5""></div></div></div><div class=""finger-diagram-container"">
			<img src=""assets/finger-diagrams/finger-diagram-6pos.png"" alt=""Finger position guide"" class=""finger-diagram"" />
		</div>","null","","","","","","","","","",""
"","","","","","main","stimulus","html-keyboard-response","64","240294","0.0-24.0-0.0-0.0","P_2749db4e819c14215d1c0c31388930a93009a2b779ef485ec1ad95123b492a38","697c608fb23a18f07d093e5b","697c60fde52eec15e73e4c3c","6","60","1200","12","1101","","<div class=""feedback-message""></div><div class=""stimulus-container""><div class=""position-wrapper""><div class=""position-box "" data-position=""0""></div></div><div class=""position-wrapper""><div class=""position-box "" data-position=""1""></div></div><div class=""position-wrapper""><div class=""position-box "" data-position=""2""></div></div><div class=""position-wrapper""><div class=""position-box "" data-position=""3""></div></div><div class=""position-wrapper""><div class=""position-box active"" data-position=""4""></div></div><div class=""position-wrapper""><div class=""position-box "" data-position=""5""></div></div></div><div class=""finger-diagram-container"">
			<img src=""assets/finger-diagrams/finger-diagram-6pos.png"" alt=""Finger position guide"" class=""finger-diagram"" />
		</div>","k","4","k","1.6016287006430234","2.8191226921226544","true","0","7","7","",""
"","","","","","main","feedback","html-keyboard-response","65","240507","0.0-24.0-0.0-1.0","P_2749db4e819c14215d1c0c31388930a93009a2b779ef485ec1ad95123b492a38","697c608fb23a18f07d093e5b","697c60fde52eec15e73e4c3c","6","60","1200","12","null","","<div class=""feedback-message""><div class=""feedback-correct"">✓</div></div><div class=""stimulus-container""><div class=""position-wrapper""><div class=""position-box "" data-position=""0""></div></div><div class=""position-wrapper""><div class=""position-box "" data-position=""1""></div></div><div class=""position-wrapper""><div class=""position-box "" data-position=""2""></div></div><div class=""position-wrapper""><div class=""position-box "" data-position=""3""></div></div><div class=""position-wrapper""><div class=""position-box active"" data-position=""4""></div></div><div class=""position-wrapper""><div class=""position-box "" data-position=""5""></div></div></div><div class=""finger-diagram-container"">
			<img src=""assets/finger-diagrams/finger-diagram-6pos.png"" alt=""Finger position guide"" class=""finger-diagram"" />
		</div>","null","","","","","","","","","",""
"","","","","","main","rsi","html-keyboard-response","66","240642","0.0-24.0-1.0","P_2749db4e819c14215d1c0c31388930a93009a2b779ef485ec1ad95123b492a38","697c608fb23a18f07d093e5b","697c60fde52eec15e73e4c3c","6","60","1200","12","null","","<div class=""feedback-message""></div><div class=""stimulus-container""><div class=""position-wrapper""><div class=""position-box "" data-position=""0""></div></div><div class=""position-wrapper""><div class=""position-box "" data-position=""1""></div></div><div class=""position-wrapper""><div class=""position-box "" data-position=""2""></div></div><div class=""position-wrapper""><div class=""position-box "" data-position=""3""></div></div><div class=""position-wrapper""><div class=""position-box "" data-position=""4""></div></div><div class=""position-wrapper""><div class=""position-box "" data-position=""5""></div></div></div><div class=""finger-diagram-container"">
			<img src=""assets/finger-diagrams/finger-diagram-6pos.png"" alt=""Finger position guide"" class=""finger-diagram"" />
		</div>","null","","","","","","","","","",""
"","","","","","main","stimulus","html-keyboard-response","67","241600","0.0-25.0-0.0-0.0","P_2749db4e819c14215d1c0c31388930a93009a2b779ef485ec1ad95123b492a38","697c608fb23a18f07d093e5b","697c60fde52eec15e73e4c3c","6","60","1200","12","957","","<div class=""feedback-message""></div><div class=""stimulus-container""><div class=""position-wrapper""><div class=""position-box "" data-position=""0""></div></div><div class=""position-wrapper""><div class=""position-box "" data-position=""1""></div></div><div class=""position-wrapper""><div class=""position-box active"" data-position=""2""></div></div><div class=""position-wrapper""><div class=""position-box "" data-position=""3""></div></div><div class=""position-wrapper""><div class=""position-box "" data-position=""4""></div></div><div class=""position-wrapper""><div class=""position-box "" data-position=""5""></div></div></div><div class=""finger-diagram-container"">
			<img src=""assets/finger-diagrams/finger-diagram-6pos.png"" alt=""Finger position guide"" class=""finger-diagram"" />
		</div>","f","2","f","0.6265709654819551","1.0125719939883875","true","0","8","8","",""
"","","","","","main","feedback","html-keyboard-response","68","241802","0.0-25.0-0.0-1.0","P_2749db4e819c14215d1c0c31388930a93009a2b779ef485ec1ad95123b492a38","697c608fb23a18f07d093e5b","697c60fde52eec15e73e4c3c","6","60","1200","12","null","","<div class=""feedback-message""><div class=""feedback-correct"">✓</div></div><div class=""stimulus-container""><div class=""position-wrapper""><div class=""position-box "" data-position=""0""></div></div><div class=""position-wrapper""><div class=""position-box "" data-position=""1""></div></div><div class=""position-wrapper""><div class=""position-box active"" data-position=""2""></div></div><div class=""position-wrapper""><div class=""position-box "" data-position=""3""></div></div><div class=""position-wrapper""><div class=""position-box "" data-position=""4""></div></div><div class=""position-wrapper""><div class=""position-box "" data-position=""5""></div></div></div><div class=""finger-diagram-container"">
			<img src=""assets/finger-diagrams/finger-diagram-6pos.png"" alt=""Finger position guide"" class=""finger-diagram"" />
		</div>","null","","","","","","","","","",""
"","","","","","main","rsi","html-keyboard-response","69","241927","0.0-25.0-1.0","P_2749db4e819c14215d1c0c31388930a93009a2b779ef485ec1ad95123b492a38","697c608fb23a18f07d093e5b","697c60fde52eec15e73e4c3c","6","60","1200","12","null","","<div class=""feedback-message""></div><div class=""stimulus-container""><div class=""position-wrapper""><div class=""position-box "" data-position=""0""></div></div><div class=""position-wrapper""><div class=""position-box "" data-position=""1""></div></div><div class=""position-wrapper""><div class=""position-box "" data-position=""2""></div></div><div class=""position-wrapper""><div class=""position-box "" data-position=""3""></div></div><div class=""position-wrapper""><div class=""position-box "" data-position=""4""></div></div><div class=""position-wrapper""><div class=""position-box "" data-position=""5""></div></div></div><div class=""finger-diagram-container"">
			<img src=""assets/finger-diagrams/finger-diagram-6pos.png"" alt=""Finger position guide"" class=""finger-diagram"" />
		</div>","null","","","","","","","","","",""
"","","","","","main","stimulus","html-keyboard-response","70","242806","0.0-26.0-0.0-0.0","P_2749db4e819c14215d1c0c31388930a93009a2b779ef485ec1ad95123b492a38","697c608fb23a18f07d093e5b","697c60fde52eec15e73e4c3c","6","60","1200","12","878","","<div class=""feedback-message""></div><div class=""stimulus-container""><div class=""position-wrapper""><div class=""position-box "" data-position=""0""></div></div><div class=""position-wrapper""><div class=""position-box "" data-position=""1""></div></div><div class=""position-wrapper""><div class=""position-box "" data-position=""2""></div></div><div class=""position-wrapper""><div class=""position-box active"" data-position=""3""></div></div><div class=""position-wrapper""><div class=""position-box "" data-position=""4""></div></div><div class=""position-wrapper""><div class=""position-box "" data-position=""5""></div></div></div><div class=""finger-diagram-container"">
			<img src=""assets/finger-diagrams/finger-diagram-6pos.png"" alt=""Finger position guide"" class=""finger-diagram"" />
		</div>","j","3","j","0.09237731181353705","0.22743527250800727","true","0","9","9","",""
"","","","","","main","feedback","html-keyboard-response","71","243012","0.0-26.0-0.0-1.0","P_2749db4e819c14215d1c0c31388930a93009a2b779ef485ec1ad95123b492a38","697c608fb23a18f07d093e5b","697c60fde52eec15e73e4c3c","6","60","1200","12","null","","<div class=""feedback-message""><div class=""feedback-correct"">✓</div></div><div class=""stimulus-container""><div class=""position-wrapper""><div class=""position-box "" data-position=""0""></div></div><div class=""position-wrapper""><div class=""position-box "" data-position=""1""></div></div><div class=""position-wrapper""><div class=""position-box "" data-position=""2""></div></div><div class=""position-wrapper""><div class=""position-box active"" data-position=""3""></div></div><div class=""position-wrapper""><div class=""position-box "" data-position=""4""></div></div><div class=""position-wrapper""><div class=""position-box "" data-position=""5""></div></div></div><div class=""finger-diagram-container"">
			<img src=""assets/finger-diagrams/finger-diagram-6pos.png"" alt=""Finger position guide"" class=""finger-diagram"" />
		</div>","null","","","","","","","","","",""
"","","","","","main","rsi","html-keyboard-response","72","243147","0.0-26.0-1.0","P_2749db4e819c14215d1c0c31388930a93009a2b779ef485ec1ad95123b492a38","697c608fb23a18f07d093e5b","697c60fde52eec15e73e4c3c","6","60","1200","12","null","","<div class=""feedback-message""></div><div class=""stimulus-container""><div class=""position-wrapper""><div class=""position-box "" data-position=""0""></div></div><div class=""position-wrapper""><div class=""position-box "" data-position=""1""></div></div><div class=""position-wrapper""><div class=""position-box "" data-position=""2""></div></div><div class=""position-wrapper""><div class=""position-box "" data-position=""3""></div></div><div class=""position-wrapper""><div class=""position-box "" data-position=""4""></div></div><div class=""position-wrapper""><div class=""position-box "" data-position=""5""></div></div></div><div class=""finger-diagram-container"">
			<img src=""assets/finger-diagrams/finger-diagram-6pos.png"" alt=""Finger position guide"" class=""finger-diagram"" />
		</div>","null","","","","","","","","","",""
"","","","","","main","stimulus","html-keyboard-response","73","243770","0.0-27.0-0.0-0.0","P_2749db4e819c14215d1c0c31388930a93009a2b779ef485ec1ad95123b492a38","697c608fb23a18f07d093e5b","697c60fde52eec15e73e4c3c","6","60","1200","12","622","","<div class=""feedback-message""></div><div class=""stimulus-container""><div class=""position-wrapper""><div class=""position-box active"" data-position=""0""></div></div><div class=""position-wrapper""><div class=""position-box "" data-position=""1""></div></div><div class=""position-wrapper""><div class=""position-box "" data-position=""2""></div></div><div class=""position-wrapper""><div class=""position-box "" data-position=""3""></div></div><div class=""position-wrapper""><div class=""position-box "" data-position=""4""></div></div><div class=""position-wrapper""><div class=""position-box "" data-position=""5""></div></div></div><div class=""finger-diagram-container"">
			<img src=""assets/finger-diagrams/finger-diagram-6pos.png"" alt=""Finger position guide"" class=""finger-diagram"" />
		</div>","s","0","s","1.7163490803009984","0.01709636891849747","true","0","10","10","",""
"","","","","","main","feedback","html-keyboard-response","74","243982","0.0-27.0-0.0-1.0","P_2749db4e819c14215d1c0c31388930a93009a2b779ef485ec1ad95123b492a38","697c608fb23a18f07d093e5b","697c60fde52eec15e73e4c3c","6","60","1200","12","null","","<div class=""feedback-message""><div class=""feedback-correct"">✓</div></div><div class=""stimulus-container""><div class=""position-wrapper""><div class=""position-box active"" data-position=""0""></div></div><div class=""position-wrapper""><div class=""position-box "" data-position=""1""></div></div><div class=""position-wrapper""><div class=""position-box "" data-position=""2""></div></div><div class=""position-wrapper""><div class=""position-box "" data-position=""3""></div></div><div class=""position-wrapper""><div class=""position-box "" data-position=""4""></div></div><div class=""position-wrapper""><div class=""position-box "" data-position=""5""></div></div></div><div class=""finger-diagram-container"">
			<img src=""assets/finger-diagrams/finger-diagram-6pos.png"" alt=""Finger position guide"" class=""finger-diagram"" />
		</div>","null","","","","","","","","","",""
"","","","","","main","rsi","html-keyboard-response","75","244118","0.0-27.0-1.0","P_2749db4e819c14215d1c0c31388930a93009a2b779ef485ec1ad95123b492a38","697c608fb23a18f07d093e5b","697c60fde52eec15e73e4c3c","6","60","1200","12","null","","<div class=""feedback-message""></div><div class=""stimulus-container""><div class=""position-wrapper""><div class=""position-box "" data-position=""0""></div></div><div class=""position-wrapper""><div class=""position-box "" data-position=""1""></div></div><div class=""position-wrapper""><div class=""position-box "" data-position=""2""></div></div><div class=""position-wrapper""><div class=""position-box "" data-position=""3""></div></div><div class=""position-wrapper""><div class=""position-box "" data-position=""4""></div></div><div class=""position-wrapper""><div class=""position-box "" data-position=""5""></div></div></div><div class=""finger-diagram-container"">
			<img src=""assets/finger-diagrams/finger-diagram-6pos.png"" alt=""Finger position guide"" class=""finger-diagram"" />
		</div>","null","","","","","","","","","",""
"","","","","","main","stimulus","html-keyboard-response","76","245972","0.0-28.0-0.0-0.0","P_2749db4e819c14215d1c0c31388930a93009a2b779ef485ec1ad95123b492a38","697c608fb23a18f07d093e5b","697c60fde52eec15e73e4c3c","6","60","1200","12","1852","","<div class=""feedback-message""></div><div class=""stimulus-container""><div class=""position-wrapper""><div class=""position-box "" data-position=""0""></div></div><div class=""position-wrapper""><div class=""position-box "" data-position=""1""></div></div><div class=""position-wrapper""><div class=""position-box "" data-position=""2""></div></div><div class=""position-wrapper""><div class=""position-box "" data-position=""3""></div></div><div class=""position-wrapper""><div class=""position-box active"" data-position=""4""></div></div><div class=""position-wrapper""><div class=""position-box "" data-position=""5""></div></div></div><div class=""finger-diagram-container"">
			<img src=""assets/finger-diagrams/finger-diagram-6pos.png"" alt=""Finger position guide"" class=""finger-diagram"" />
		</div>","k","4","k","1.6016287006430234","2.2528020787541636","true","0","11","11","",""
"","","","","","main","feedback","html-keyboard-response","77","246183","0.0-28.0-0.0-1.0","P_2749db4e819c14215d1c0c31388930a93009a2b779ef485ec1ad95123b492a38","697c608fb23a18f07d093e5b","697c60fde52eec15e73e4c3c","6","60","1200","12","null","","<div class=""feedback-message""><div class=""feedback-correct"">✓</div></div><div class=""stimulus-container""><div class=""position-wrapper""><div class=""position-box "" data-position=""0""></div></div><div class=""position-wrapper""><div class=""position-box "" data-position=""1""></div></div><div class=""position-wrapper""><div class=""position-box "" data-position=""2""></div></div><div class=""position-wrapper""><div class=""position-box "" data-position=""3""></div></div><div class=""position-wrapper""><div class=""position-box active"" data-position=""4""></div></div><div class=""position-wrapper""><div class=""position-box "" data-position=""5""></div></div></div><div class=""finger-diagram-container"">
			<img src=""assets/finger-diagrams/finger-diagram-6pos.png"" alt=""Finger position guide"" class=""finger-diagram"" />
		</div>","null","","","","","","","","","",""
"","","","","","main","rsi","html-keyboard-response","78","246317","0.0-28.0-1.0","P_2749db4e819c14215d1c0c31388930a93009a2b779ef485ec1ad95123b492a38","697c608fb23a18f07d093e5b","697c60fde52eec15e73e4c3c","6","60","1200","12","null","","<div class=""feedback-message""></div><div class=""stimulus-container""><div class=""position-wrapper""><div class=""position-box "" data-position=""0""></div></div><div class=""position-wrapper""><div class=""position-box "" data-position=""1""></div></div><div class=""position-wrapper""><div class=""position-box "" data-position=""2""></div></div><div class=""position-wrapper""><div class=""position-box "" data-position=""3""></div></div><div class=""position-wrapper""><div class=""position-box "" data-position=""4""></div></div><div class=""position-wrapper""><div class=""position-box "" data-position=""5""></div></div></div><div class=""finger-diagram-container"">
			<img src=""assets/finger-diagrams/finger-diagram-6pos.png"" alt=""Finger position guide"" class=""finger-diagram"" />
		</div>","null","","","","","","","","","",""
"","","","","","main","stimulus","html-keyboard-response","79","247473","0.0-29.0-0.0-0.0","P_2749db4e819c14215d1c0c31388930a93009a2b779ef485ec1ad95123b492a38","697c608fb23a18f07d093e5b","697c60fde52eec15e73e4c3c","6","60","1200","12","1155","","<div class=""feedback-message""></div><div class=""stimulus-container""><div class=""position-wrapper""><div class=""position-box "" data-position=""0""></div></div><div class=""position-wrapper""><div class=""position-box "" data-position=""1""></div></div><div class=""position-wrapper""><div class=""position-box active"" data-position=""2""></div></div><div class=""position-wrapper""><div class=""position-box "" data-position=""3""></div></div><div class=""position-wrapper""><div class=""position-box "" data-position=""4""></div></div><div class=""position-wrapper""><div class=""position-box "" data-position=""5""></div></div></div><div class=""finger-diagram-container"">
			<img src=""assets/finger-diagrams/finger-diagram-6pos.png"" alt=""Finger position guide"" class=""finger-diagram"" />
		</div>","f","2","f","0.6265709654819551","1.0125719939883875","true","0","12","12","",""
"","","","","","main","feedback","html-keyboard-response","80","247684","0.0-29.0-0.0-1.0","P_2749db4e819c14215d1c0c31388930a93009a2b779ef485ec1ad95123b492a38","697c608fb23a18f07d093e5b","697c60fde52eec15e73e4c3c","6","60","1200","12","null","","<div class=""feedback-message""><div class=""feedback-correct"">✓</div></div><div class=""stimulus-container""><div class=""position-wrapper""><div class=""position-box "" data-position=""0""></div></div><div class=""position-wrapper""><div class=""position-box "" data-position=""1""></div></div><div class=""position-wrapper""><div class=""position-box active"" data-position=""2""></div></div><div class=""position-wrapper""><div class=""position-box "" data-position=""3""></div></div><div class=""position-wrapper""><div class=""position-box "" data-position=""4""></div></div><div class=""position-wrapper""><div class=""position-box "" data-position=""5""></div></div></div><div class=""finger-diagram-container"">
			<img src=""assets/finger-diagrams/finger-diagram-6pos.png"" alt=""Finger position guide"" class=""finger-diagram"" />
		</div>","null","","","","","","","","","",""
"","","","","","main","rsi","html-keyboard-response","81","247823","0.0-29.0-1.0","P_2749db4e819c14215d1c0c31388930a93009a2b779ef485ec1ad95123b492a38","697c608fb23a18f07d093e5b","697c60fde52eec15e73e4c3c","6","60","1200","12","null","","<div class=""feedback-message""></div><div class=""stimulus-container""><div class=""position-wrapper""><div class=""position-box "" data-position=""0""></div></div><div class=""position-wrapper""><div class=""position-box "" data-position=""1""></div></div><div class=""position-wrapper""><div class=""position-box "" data-position=""2""></div></div><div class=""position-wrapper""><div class=""position-box "" data-position=""3""></div></div><div class=""position-wrapper""><div class=""position-box "" data-position=""4""></div></div><div class=""position-wrapper""><div class=""position-box "" data-position=""5""></div></div></div><div class=""finger-diagram-container"">
			<img src=""assets/finger-diagrams/finger-diagram-6pos.png"" alt=""Finger position guide"" class=""finger-diagram"" />
		</div>","null","","","","","","","","","",""
"","","","","","main","stimulus","html-keyboard-response","82","248695","0.0-30.0-0.0-0.0","P_2749db4e819c14215d1c0c31388930a93009a2b779ef485ec1ad95123b492a38","697c608fb23a18f07d093e5b","697c60fde52eec15e73e4c3c","6","60","1200","12","870","","<div class=""feedback-message""></div><div class=""stimulus-container""><div class=""position-wrapper""><div class=""position-box "" data-position=""0""></div></div><div class=""position-wrapper""><div class=""position-box "" data-position=""1""></div></div><div class=""position-wrapper""><div class=""position-box "" data-position=""2""></div></div><div class=""position-wrapper""><div class=""position-box active"" data-position=""3""></div></div><div class=""position-wrapper""><div class=""position-box "" data-position=""4""></div></div><div class=""position-wrapper""><div class=""position-box "" data-position=""5""></div></div></div><div class=""finger-diagram-container"">
			<img src=""assets/finger-diagrams/finger-diagram-6pos.png"" alt=""Finger position guide"" class=""finger-diagram"" />
		</div>","j","3","j","0.09237731181353705","0.22743527250800727","true","0","13","13","",""
"","","","","","main","feedback","html-keyboard-response","83","248899","0.0-30.0-0.0-1.0","P_2749db4e819c14215d1c0c31388930a93009a2b779ef485ec1ad95123b492a38","697c608fb23a18f07d093e5b","697c60fde52eec15e73e4c3c","6","60","1200","12","null","","<div class=""feedback-message""><div class=""feedback-correct"">✓</div></div><div class=""stimulus-container""><div class=""position-wrapper""><div class=""position-box "" data-position=""0""></div></div><div class=""position-wrapper""><div class=""position-box "" data-position=""1""></div></div><div class=""position-wrapper""><div class=""position-box "" data-position=""2""></div></div><div class=""position-wrapper""><div class=""position-box active"" data-position=""3""></div></div><div class=""position-wrapper""><div class=""position-box "" data-position=""4""></div></div><div class=""position-wrapper""><div class=""position-box "" data-position=""5""></div></div></div><div class=""finger-diagram-container"">
			<img src=""assets/finger-diagrams/finger-diagram-6pos.png"" alt=""Finger position guide"" class=""finger-diagram"" />
		</div>","null","","","","","","","","","",""
"","","","","","main","rsi","html-keyboard-response","84","249023","0.0-30.0-1.0","P_2749db4e819c14215d1c0c31388930a93009a2b779ef485ec1ad95123b492a38","697c608fb23a18f07d093e5b","697c60fde52eec15e73e4c3c","6","60","1200","12","null","","<div class=""feedback-message""></div><div class=""stimulus-container""><div class=""position-wrapper""><div class=""position-box "" data-position=""0""></div></div><div class=""position-wrapper""><div class=""position-box "" data-position=""1""></div></div><div class=""position-wrapper""><div class=""position-box "" data-position=""2""></div></div><div class=""position-wrapper""><div class=""position-box "" data-position=""3""></div></div><div class=""position-wrapper""><div class=""position-box "" data-position=""4""></div></div><div class=""position-wrapper""><div class=""position-box "" data-position=""5""></div></div></div><div class=""finger-diagram-container"">
			<img src=""assets/finger-diagrams/finger-diagram-6pos.png"" alt=""Finger position guide"" class=""finger-diagram"" />
		</div>","null","","","","","","","","","",""
