"success","timeout","failed_images","failed_audio","failed_video","phase","experiment_trial_type","trial_type","trial_index","time_elapsed","internal_node_id","subject_id","study_id","session_id","matrix_size","trials_per_block","total_trials","practice_trials","rt","view_history","stimulus","response","position","correct_key","conditional_entropy","surprisal","correct","block","trial_in_block","overall_trial","question_order","questionnaire_item"
"true","false","[]","[]","[]","preload","preload","preload","0","745","0.0-0.0","P_4b6833d547037b3200d8ce381f31811a05aa17f5b5e943638920bb05b69eb0b2","697c608fb23a18f07d093e5b","697c60fa8004176b45d30e72","6","60","1200","12","","","","","","","","","","","","","",""
"true","","","","","fullscreen","fullscreen","fullscreen","1","6260","0.0-1.0","P_4b6833d547037b3200d8ce381f31811a05aa17f5b5e943638920bb05b69eb0b2","697c608fb23a18f07d093e5b","697c60fa8004176b45d30e72","6","60","1200","12","4511","","","","","","","","","","","","",""
"","","","","","instructions","instructions","instructions","2","205593","0.0-2.0","P_4b6833d547037b3200d8ce381f31811a05aa17f5b5e943638920bb05b69eb0b2","697c608fb23a18f07d093e5b","697c60fa8004176b45d30e72","6","60","1200","12","199330","[{""page_index"":0,""viewing_time"":70656},{""page_index"":1,""viewing_time"":111877},{""page_index"":2,""viewing_time"":16796}]","","","","","","","","","","","",""
"","","","","","","","html-keyboard-response","3","207537","0.0-3.0","P_4b6833d547037b3200d8ce381f31811a05aa17f5b5e943638920bb05b69eb0b2","697c608fb23a18f07d093e5b","697c60fa8004176b45d30e72","6","60","1200","12","1940","","
				<div class=""instruction-text"">
					<h2>Practice</h2>
					<p>You wil start with 12 practice trials to get familiar with the task.</p>
					<p><strong>Ready to practice? Please rest your fingers on these keys throughout the task, as demonstrated below:</strong></p>
					<img src=""assets/key-mappings-6pos.gif"" alt=""Key Mapping"" class=""key-mapping-image"" />
					<p style=""text-align: center;"">Press any key to begin the practice trials.</p>
				</div>","d","","","","","","","","","",""
"","","","","","practice","stimulus","html-keyboard-response","4","207618","0.0-4.0-0.0-0.0","P_4b6833d547037b3200d8ce381f31811a05aa17f5b5e943638920bb05b69eb0b2","697c608fb23a18f07d093e5b","697c60fa8004176b45d30e72","6","60","1200","12","78","","<div class=""feedback-message""></div><div class=""stimulus-container""><div class=""position-wrapper""><div class=""key-label"">S</div><div class=""position-box active"" data-position=""0""></div></div><div class=""position-wrapper""><div class=""key-label"">D</div><div class=""position-box "" data-position=""1""></div></div><div class=""position-wrapper""><div class=""key-label"">F</div><div class=""position-box "" data-position=""2""></div></div><div class=""position-wrapper""><div class=""key-label"">J</div><div class=""position-box "" data-position=""3""></div></div><div class=""position-wrapper""><div class=""key-label"">K</div><div class=""position-box "" data-position=""4""></div></div><div class=""position-wrapper""><div class=""key-label"">L</div><div class=""position-box "" data-position=""5""></div></div></div><div class=""finger-diagram-container"">
			<img src=""assets/finger-diagrams/finger-diagram-6pos.png"" alt=""Finger position guide"" class=""finger-diagram"" />
		</div>","f","0","s","0.6265709654819551","null","false","","","","",""
"","","","","","practice","feedback","html-keyboard-response","5","207825","0.0-4.0-0.0-1.0","P_4b6833d547037b3200d8ce381f31811a05aa17f5b5e943638920bb05b69eb0b2","697c608fb23a18f07d093e5b","697c60fa8004176b45d30e72","6","60","1200","12","null","","<div class=""feedback-message""><div class=""feedback-error"">✗<br>Try again!</div></div><div class=""stimulus-container""><div class=""position-wrapper""><div class=""key-label"">S</div><div class=""position-box active"" data-position=""0""></div></div><div class=""position-wrapper""><div class=""key-label"">D</div><div class=""position-box "" data-position=""1""></div></div><div class=""position-wrapper""><div class=""key-label"">F</div><div class=""position-box "" data-position=""2""></div></div><div class=""position-wrapper""><div class=""key-label"">J</div><div class=""position-box "" data-position=""3""></div></div><div class=""position-wrapper""><div class=""key-label"">K</div><div class=""position-box "" data-position=""4""></div></div><div class=""position-wrapper""><div class=""key-label"">L</div><div class=""position-box "" data-position=""5""></div></div></div><div class=""finger-diagram-container"">
			<img src=""assets/finger-diagrams/finger-diagram-6pos.png"" alt=""Finger position guide"" class=""finger-diagram"" />
		</div>","null","","","","","","","","","",""
"","","","","","practice","retry","html-keyboard-response","6","208623","0.0-4.0-0.1-0.1","P_4b6833d547037b3200d8ce381f31811a05aa17f5b5e943638920bb05b69eb0b2","697c608fb23a18f07d093e5b","697c60fa8004176b45d30e72","6","60","1200","12","796","","<div class=""feedback-message""></div><div class=""stimulus-container""><div class=""position-wrapper""><div class=""key-label"">S</div><div class=""position-box active"" data-position=""0""></div></div><div class=""position-wrapper""><div class=""key-label"">D</div><div class=""position-box "" data-position=""1""></div></div><div class=""position-wrapper""><div class=""key-label"">F</div><div class=""position-box "" data-position=""2""></div></div><div class=""position-wrapper""><div class=""key-label"">J</div><div class=""position-box "" data-position=""3""></div></div><div class=""position-wrapper""><div class=""key-label"">K</div><div class=""position-box "" data-position=""4""></div></div><div class=""position-wrapper""><div class=""key-label"">L</div><div class=""position-box "" data-position=""5""></div></div></div><div class=""finger-diagram-container"">
			<img src=""assets/finger-diagrams/finger-diagram-6pos.png"" alt=""Finger position guide"" class=""finger-diagram"" />
		</div>","s","0","s","0.6265709654819551","null","true","","","","",""
"","","","","","practice","feedback","html-keyboard-response","7","208824","0.0-4.0-0.1-1.1","P_4b6833d547037b3200d8ce381f31811a05aa17f5b5e943638920bb05b69eb0b2","697c608fb23a18f07d093e5b","697c60fa8004176b45d30e72","6","60","1200","12","null","","<div class=""feedback-message""><div class=""feedback-correct"">✓</div></div><div class=""stimulus-container""><div class=""position-wrapper""><div class=""key-label"">S</div><div class=""position-box active"" data-position=""0""></div></div><div class=""position-wrapper""><div class=""key-label"">D</div><div class=""position-box "" data-position=""1""></div></div><div class=""position-wrapper""><div class=""key-label"">F</div><div class=""position-box "" data-position=""2""></div></div><div class=""position-wrapper""><div class=""key-label"">J</div><div class=""position-box "" data-position=""3""></div></div><div class=""position-wrapper""><div class=""key-label"">K</div><div class=""position-box "" data-position=""4""></div></div><div class=""position-wrapper""><div class=""key-label"">L</div><div class=""position-box "" data-position=""5""></div></div></div><div class=""finger-diagram-container"">
			<img src=""assets/finger-diagrams/finger-diagram-6pos.png"" alt=""Finger position guide"" class=""finger-diagram"" />
		</div>","null","","","","","","","","","",""
"","","","","","practice","rsi","html-keyboard-response","8","208946","0.0-4.0-1.0","P_4b6833d547037b3200d8ce381f31811a05aa17f5b5e943638920bb05b69eb0b2","697c608fb23a18f07d093e5b","697c60fa8004176b45d30e72","6","60","1200","12","null","","<div class=""feedback-message""></div><div class=""stimulus-container""><div class=""position-wrapper""><div class=""key-label"">S</div><div class=""position-box "" data-position=""0""></div></div><div class=""position-wrapper""><div class=""key-label"">D</div><div class=""position-box "" data-position=""1""></div></div><div class=""position-wrapper""><div class=""key-label"">F</div><div class=""position-box "" data-position=""2""></div></div><div class=""position-wrapper""><div class=""key-label"">J</div><div class=""position-box "" data-position=""3""></div></div><div class=""position-wrapper""><div class=""key-label"">K</div><div class=""position-box "" data-position=""4""></div></div><div class=""position-wrapper""><div class=""key-label"">L</div><div class=""position-box "" data-position=""5""></div></div></div><div class=""finger-diagram-container"">
			<img src=""assets/finger-diagrams/finger-diagram-6pos.png"" alt=""Finger position guide"" class=""finger-diagram"" />
		</div>","null","","","","","","","","","",""
"","","","","","practice","stimulus","html-keyboard-response","9","209773","0.0-5.0-0.0-0.0","P_4b6833d547037b3200d8ce381f31811a05aa17f5b5e943638920bb05b69eb0b2","697c608fb23a18f07d093e5b","697c60fa8004176b45d30e72","6","60","1200","12","824","","<div class=""feedback-message""></div><div class=""stimulus-container""><div class=""position-wrapper""><div class=""key-label"">S</div><div class=""position-box "" data-position=""0""></div></div><div class=""position-wrapper""><div class=""key-label"">D</div><div class=""position-box "" data-position=""1""></div></div><div class=""position-wrapper""><div class=""key-label"">F</div><div class=""position-box active"" data-position=""2""></div></div><div class=""position-wrapper""><div class=""key-label"">J</div><div class=""position-box "" data-position=""3""></div></div><div class=""position-wrapper""><div class=""key-label"">K</div><div class=""position-box "" data-position=""4""></div></div><div class=""position-wrapper""><div class=""key-label"">L</div><div class=""position-box "" data-position=""5""></div></div></div><div class=""finger-diagram-container"">
			<img src=""assets/finger-diagrams/finger-diagram-6pos.png"" alt=""Finger position guide"" class=""finger-diagram"" />
		</div>","f","2","f","0.09237731181353705","0.22743527250800727","true","","","","",""
"","","","","","practice","feedback","html-keyboard-response","10","209975","0.0-5.0-0.0-1.0","P_4b6833d547037b3200d8ce381f31811a05aa17f5b5e943638920bb05b69eb0b2","697c608fb23a18f07d093e5b","697c60fa8004176b45d30e72","6","60","1200","12","null","","<div class=""feedback-message""><div class=""feedback-correct"">✓</div></div><div class=""stimulus-container""><div class=""position-wrapper""><div class=""key-label"">S</div><div class=""position-box "" data-position=""0""></div></div><div class=""position-wrapper""><div class=""key-label"">D</div><div class=""position-box "" data-position=""1""></div></div><div class=""position-wrapper""><div class=""key-label"">F</div><div class=""position-box active"" data-position=""2""></div></div><div class=""position-wrapper""><div class=""key-label"">J</div><div class=""position-box "" data-position=""3""></div></div><div class=""position-wrapper""><div class=""key-label"">K</div><div class=""position-box "" data-position=""4""></div></div><div class=""position-wrapper""><div class=""key-label"">L</div><div class=""position-box "" data-position=""5""></div></div></div><div class=""finger-diagram-container"">
			<img src=""assets/finger-diagrams/finger-diagram-6pos.png"" alt=""Finger position guide"" class=""finger-diagram"" />
		</div>","null","","","","","","","","","",""
"","","","","","practice","rsi","html-keyboard-response","11","210097","0.0-5.0-1.0","P_4b6833d547037b3200d8ce381f31811a05aa17f5b5e943638920bb05b69eb0b2","697c608fb23a18f07d093e5b","697c60fa8004176b45d30e72","6","60","1200","12","null","","<div class=""feedback-message""></div><div class=""stimulus-container""><div class=""position-wrapper""><div class=""key-label"">S</div><div class=""position-box "" data-position=""0""></div></div><div class=""position-wrapper""><div class=""key-label"">D</div><div class=""position-box "" data-position=""1""></div></div><div class=""position-wrapper""><div class=""key-label"">F</div><div class=""position-box "" data-position=""2""></div></div><div class=""position-wrapper""><div class=""key-label"">J</div><div class=""position-box "" data-position=""3""></div></div><div class=""position-wrapper""><div class=""key-label"">K</div><div class=""position-box "" data-position=""4""></div></div><div class=""position-wrapper""><div class=""key-label"">L</div><div class=""position-box "" data-position=""5""></div></div></div><div class=""finger-diagram-container"">
			<img src=""assets/finger-diagrams/finger-diagram-6pos.png"" alt=""Finger position guide"" class=""finger-diagram"" />
		</div>","null","","","","","","","","","",""
"","","","","","practice","stimulus","html-keyboard-response","12","210976","0.0-6.0-0.0-0.0","P_4b6833d547037b3200d8ce381f31811a05aa17f5b5e943638920bb05b69eb0b2","697c608fb23a18f07d093e5b","697c60fa8004176b45d30e72","6","60","1200","12","878","","<div class=""feedback-message""></div><div class=""stimulus-container""><div class=""position-wrapper""><div class=""key-label"">S</div><div class=""position-box "" data-position=""0""></div></div><div class=""position-wrapper""><div class=""key-label"">D</div><div class=""position-box "" data-position=""1""></div></div><div class=""position-wrapper""><div class=""key-label"">F</div><div class=""position-box "" data-position=""2""></div></div><div class=""position-wrapper""><div class=""key-label"">J</div><div class=""position-box "" data-position=""3""></div></div><div class=""position-wrapper""><div class=""key-label"">K</div><div class=""position-box active"" data-position=""4""></div></div><div class=""position-wrapper""><div class=""key-label"">L</div><div class=""position-box "" data-position=""5""></div></div></div><div class=""finger-diagram-container"">
			<img src=""assets/finger-diagrams/finger-diagram-6pos.png"" alt=""Finger position guide"" class=""finger-diagram"" />
		</div>","k","4","k","1.919781834473742","35.90835755421978","true","","","","",""
"","","","","","practice","feedback","html-keyboard-response","13","211177","0.0-6.0-0.0-1.0","P_4b6833d547037b3200d8ce381f31811a05aa17f5b5e943638920bb05b69eb0b2","697c608fb23a18f07d093e5b","697c60fa8004176b45d30e72","6","60","1200","12","null","","<div class=""feedback-message""><div class=""feedback-correct"">✓</div></div><div class=""stimulus-container""><div class=""position-wrapper""><div class=""key-label"">S</div><div class=""position-box "" data-position=""0""></div></div><div class=""position-wrapper""><div class=""key-label"">D</div><div class=""position-box "" data-position=""1""></div></div><div class=""position-wrapper""><div class=""key-label"">F</div><div class=""position-box "" data-position=""2""></div></div><div class=""position-wrapper""><div class=""key-label"">J</div><div class=""position-box "" data-position=""3""></div></div><div class=""position-wrapper""><div class=""key-label"">K</div><div class=""position-box active"" data-position=""4""></div></div><div class=""position-wrapper""><div class=""key-label"">L</div><div class=""position-box "" data-position=""5""></div></div></div><div class=""finger-diagram-container"">
			<img src=""assets/finger-diagrams/finger-diagram-6pos.png"" alt=""Finger position guide"" class=""finger-diagram"" />
		</div>","null","","","","","","","","","",""
"","","","","","practice","rsi","html-keyboard-response","14","211300","0.0-6.0-1.0","P_4b6833d547037b3200d8ce381f31811a05aa17f5b5e943638920bb05b69eb0b2","697c608fb23a18f07d093e5b","697c60fa8004176b45d30e72","6","60","1200","12","null","","<div class=""feedback-message""></div><div class=""stimulus-container""><div class=""position-wrapper""><div class=""key-label"">S</div><div class=""position-box "" data-position=""0""></div></div><div class=""position-wrapper""><div class=""key-label"">D</div><div class=""position-box "" data-position=""1""></div></div><div class=""position-wrapper""><div class=""key-label"">F</div><div class=""position-box "" data-position=""2""></div></div><div class=""position-wrapper""><div class=""key-label"">J</div><div class=""position-box "" data-position=""3""></div></div><div class=""position-wrapper""><div class=""key-label"">K</div><div class=""position-box "" data-position=""4""></div></div><div class=""position-wrapper""><div class=""key-label"">L</div><div class=""position-box "" data-position=""5""></div></div></div><div class=""finger-diagram-container"">
			<img src=""assets/finger-diagrams/finger-diagram-6pos.png"" alt=""Finger position guide"" class=""finger-diagram"" />
		</div>","null","","","","","","","","","",""
"","","","","","practice","stimulus","html-keyboard-response","15","211912","0.0-7.0-0.0-0.0","P_4b6833d547037b3200d8ce381f31811a05aa17f5b5e943638920bb05b69eb0b2","697c608fb23a18f07d093e5b","697c60fa8004176b45d30e72","6","60","1200","12","611","","<div class=""feedback-message""></div><div class=""stimulus-container""><div class=""position-wrapper""><div class=""key-label"">S</div><div class=""position-box "" data-position=""0""></div></div><div class=""position-wrapper""><div class=""key-label"">D</div><div class=""position-box "" data-position=""1""></div></div><div class=""position-wrapper""><div class=""key-label"">F</div><div class=""position-box "" data-position=""2""></div></div><div class=""position-wrapper""><div class=""key-label"">J</div><div class=""position-box "" data-position=""3""></div></div><div class=""position-wrapper""><div class=""key-label"">K</div><div class=""position-box "" data-position=""4""></div></div><div class=""position-wrapper""><div class=""key-label"">L</div><div class=""position-box active"" data-position=""5""></div></div></div><div class=""finger-diagram-container"">
			<img src=""assets/finger-diagrams/finger-diagram-6pos.png"" alt=""Finger position guide"" class=""finger-diagram"" />
		</div>","l","5","l","1.6016287006430237","2.230037588621035","true","","","","",""
"","","","","","practice","feedback","html-keyboard-response","16","212113","0.0-7.0-0.0-1.0","P_4b6833d547037b3200d8ce381f31811a05aa17f5b5e943638920bb05b69eb0b2","697c608fb23a18f07d093e5b","697c60fa8004176b45d30e72","6","60","1200","12","null","","<div class=""feedback-message""><div class=""feedback-correct"">✓</div></div><div class=""stimulus-container""><div class=""position-wrapper""><div class=""key-label"">S</div><div class=""position-box "" data-position=""0""></div></div><div class=""position-wrapper""><div class=""key-label"">D</div><div class=""position-box "" data-position=""1""></div></div><div class=""position-wrapper""><div class=""key-label"">F</div><div class=""position-box "" data-position=""2""></div></div><div class=""position-wrapper""><div class=""key-label"">J</div><div class=""position-box "" data-position=""3""></div></div><div class=""position-wrapper""><div class=""key-label"">K</div><div class=""position-box "" data-position=""4""></div></div><div class=""position-wrapper""><div class=""key-label"">L</div><div class=""position-box active"" data-position=""5""></div></div></div><div class=""finger-diagram-container"">
			<img src=""assets/finger-diagrams/finger-diagram-6pos.png"" alt=""Finger position guide"" class=""finger-diagram"" />
		</div>","null","","","","","","","","","",""
"","","","","","practice","rsi","html-keyboard-response","17","212235","0.0-7.0-1.0","P_4b6833d547037b3200d8ce381f31811a05aa17f5b5e943638920bb05b69eb0b2","697c608fb23a18f07d093e5b","697c60fa8004176b45d30e72","6","60","1200","12","null","","<div class=""feedback-message""></div><div class=""stimulus-container""><div class=""position-wrapper""><div class=""key-label"">S</div><div class=""position-box "" data-position=""0""></div></div><div class=""position-wrapper""><div class=""key-label"">D</div><div class=""position-box "" data-position=""1""></div></div><div class=""position-wrapper""><div class=""key-label"">F</div><div class=""position-box "" data-position=""2""></div></div><div class=""position-wrapper""><div class=""key-label"">J</div><div class=""position-box "" data-position=""3""></div></div><div class=""position-wrapper""><div class=""key-label"">K</div><div class=""position-box "" data-position=""4""></div></div><div class=""position-wrapper""><div class=""key-label"">L</div><div class=""position-box "" data-position=""5""></div></div></div><div class=""finger-diagram-container"">
			<img src=""assets/finger-diagrams/finger-diagram-6pos.png"" alt=""Finger position guide"" class=""finger-diagram"" />
		</div>","null","","","","","","","","","",""
"","","","","","practice","stimulus","html-keyboard-response","18","213320","0.0-8.0-0.0-0.0","P_4b6833d547037b3200d8ce381f31811a05aa17f5b5e943638920bb05b69eb0b2","697c608fb23a18f07d093e5b","697c60fa8004176b45d30e72","6","60","1200","12","1083","","<div class=""feedback-message""></div><div class=""stimulus-container""><div class=""position-wrapper""><div class=""key-label"">S</div><div class=""position-box "" data-position=""0""></div></div><div class=""position-wrapper""><div class=""key-label"">D</div><div class=""position-box "" data-position=""1""></div></div><div class=""position-wrapper""><div class=""key-label"">F</div><div class=""position-box "" data-position=""2""></div></div><div class=""position-wrapper""><div class=""key-label"">J</div><div class=""position-box active"" data-position=""3""></div></div><div class=""position-wrapper""><div class=""key-label"">K</div><div class=""position-box "" data-position=""4""></div></div><div class=""position-wrapper""><div class=""key-label"">L</div><div class=""position-box "" data-position=""5""></div></div></div><div class=""finger-diagram-container"">
			<img src=""assets/finger-diagrams/finger-diagram-6pos.png"" alt=""Finger position guide"" class=""finger-diagram"" />
		</div>","j","3","j","1.7164586615480486","1.8672243003169464","true","","","","",""
"","","","","","practice","feedback","html-keyboard-response","19","213522","0.0-8.0-0.0-1.0","P_4b6833d547037b3200d8ce381f31811a05aa17f5b5e943638920bb05b69eb0b2","697c608fb23a18f07d093e5b","697c60fa8004176b45d30e72","6","60","1200","12","null","","<div class=""feedback-message""><div class=""feedback-correct"">✓</div></div><div class=""stimulus-container""><div class=""position-wrapper""><div class=""key-label"">S</div><div class=""position-box "" data-position=""0""></div></div><div class=""position-wrapper""><div class=""key-label"">D</div><div class=""position-box "" data-position=""1""></div></div><div class=""position-wrapper""><div class=""key-label"">F</div><div class=""position-box "" data-position=""2""></div></div><div class=""position-wrapper""><div class=""key-label"">J</div><div class=""position-box active"" data-position=""3""></div></div><div class=""position-wrapper""><div class=""key-label"">K</div><div class=""position-box "" data-position=""4""></div></div><div class=""position-wrapper""><div class=""key-label"">L</div><div class=""position-box "" data-position=""5""></div></div></div><div class=""finger-diagram-container"">
			<img src=""assets/finger-diagrams/finger-diagram-6pos.png"" alt=""Finger position guide"" class=""finger-diagram"" />
		</div>","null","","","","","","","","","",""
"","","","","","practice","rsi","html-keyboard-response","20","213644","0.0-8.0-1.0","P_4b6833d547037b3200d8ce381f31811a05aa17f5b5e943638920bb05b69eb0b2","697c608fb23a18f07d093e5b","697c60fa8004176b45d30e72","6","60","1200","12","null","","<div class=""feedback-message""></div><div class=""stimulus-container""><div class=""position-wrapper""><div class=""key-label"">S</div><div class=""position-box "" data-position=""0""></div></div><div class=""position-wrapper""><div class=""key-label"">D</div><div class=""position-box "" data-position=""1""></div></div><div class=""position-wrapper""><div class=""key-label"">F</div><div class=""position-box "" data-position=""2""></div></div><div class=""position-wrapper""><div class=""key-label"">J</div><div class=""position-box "" data-position=""3""></div></div><div class=""position-wrapper""><div class=""key-label"">K</div><div class=""position-box "" data-position=""4""></div></div><div class=""position-wrapper""><div class=""key-label"">L</div><div class=""position-box "" data-position=""5""></div></div></div><div class=""finger-diagram-container"">
			<img src=""assets/finger-diagrams/finger-diagram-6pos.png"" alt=""Finger position guide"" class=""finger-diagram"" />
		</div>","null","","","","","","","","","",""
"","","","","","practice","stimulus","html-keyboard-response","21","214415","0.0-9.0-0.0-0.0","P_4b6833d547037b3200d8ce381f31811a05aa17f5b5e943638920bb05b69eb0b2","697c608fb23a18f07d093e5b","697c60fa8004176b45d30e72","6","60","1200","12","769","","<div class=""feedback-message""></div><div class=""stimulus-container""><div class=""position-wrapper""><div class=""key-label"">S</div><div class=""position-box "" data-position=""0""></div></div><div class=""position-wrapper""><div class=""key-label"">D</div><div class=""position-box active"" data-position=""1""></div></div><div class=""position-wrapper""><div class=""key-label"">F</div><div class=""position-box "" data-position=""2""></div></div><div class=""position-wrapper""><div class=""key-label"">J</div><div class=""position-box "" data-position=""3""></div></div><div class=""position-wrapper""><div class=""key-label"">K</div><div class=""position-box "" data-position=""4""></div></div><div class=""position-wrapper""><div class=""key-label"">L</div><div class=""position-box "" data-position=""5""></div></div></div><div class=""finger-diagram-container"">
			<img src=""assets/finger-diagrams/finger-diagram-6pos.png"" alt=""Finger position guide"" class=""finger-diagram"" />
		</div>","d","1","d","1.7163490803009984","null","true","","","","",""
"","","","","","practice","feedback","html-keyboard-response","22","214619","0.0-9.0-0.0-1.0","P_4b6833d547037b3200d8ce381f31811a05aa17f5b5e943638920bb05b69eb0b2","697c608fb23a18f07d093e5b","697c60fa8004176b45d30e72","6","60","1200","12","null","","<div class=""feedback-message""><div class=""feedback-correct"">✓</div></div><div class=""stimulus-container""><div class=""position-wrapper""><div class=""key-label"">S</div><div class=""position-box "" data-position=""0""></div></div><div class=""position-wrapper""><div class=""key-label"">D</div><div class=""position-box active"" data-position=""1""></div></div><div class=""position-wrapper""><div class=""key-label"">F</div><div class=""position-box "" data-position=""2""></div></div><div class=""position-wrapper""><div class=""key-label"">J</div><div class=""position-box "" data-position=""3""></div></div><div class=""position-wrapper""><div class=""key-label"">K</div><div class=""position-box "" data-position=""4""></div></div><div class=""position-wrapper""><div class=""key-label"">L</div><div class=""position-box "" data-position=""5""></div></div></div><div class=""finger-diagram-container"">
			<img src=""assets/finger-diagrams/finger-diagram-6pos.png"" alt=""Finger position guide"" class=""finger-diagram"" />
		</div>","null","","","","","","","","","",""
"","","","","","practice","rsi","html-keyboard-response","23","214741","0.0-9.0-1.0","P_4b6833d547037b3200d8ce381f31811a05aa17f5b5e943638920bb05b69eb0b2","697c608fb23a18f07d093e5b","697c60fa8004176b45d30e72","6","60","1200","12","null","","<div class=""feedback-message""></div><div class=""stimulus-container""><div class=""position-wrapper""><div class=""key-label"">S</div><div class=""position-box "" data-position=""0""></div></div><div class=""position-wrapper""><div class=""key-label"">D</div><div class=""position-box "" data-position=""1""></div></div><div class=""position-wrapper""><div class=""key-label"">F</div><div class=""position-box "" data-position=""2""></div></div><div class=""position-wrapper""><div class=""key-label"">J</div><div class=""position-box "" data-position=""3""></div></div><div class=""position-wrapper""><div class=""key-label"">K</div><div class=""position-box "" data-position=""4""></div></div><div class=""position-wrapper""><div class=""key-label"">L</div><div class=""position-box "" data-position=""5""></div></div></div><div class=""finger-diagram-container"">
			<img src=""assets/finger-diagrams/finger-diagram-6pos.png"" alt=""Finger position guide"" class=""finger-diagram"" />
		</div>","null","","","","","","","","","",""
"","","","","","practice","stimulus","html-keyboard-response","24","215452","0.0-10.0-0.0-0.0","P_4b6833d547037b3200d8ce381f31811a05aa17f5b5e943638920bb05b69eb0b2","697c608fb23a18f07d093e5b","697c60fa8004176b45d30e72","6","60","1200","12","709","","<div class=""feedback-message""></div><div class=""stimulus-container""><div class=""position-wrapper""><div class=""key-label"">S</div><div class=""position-box "" data-position=""0""></div></div><div class=""position-wrapper""><div class=""key-label"">D</div><div class=""position-box active"" data-position=""1""></div></div><div class=""position-wrapper""><div class=""key-label"">F</div><div class=""position-box "" data-position=""2""></div></div><div class=""position-wrapper""><div class=""key-label"">J</div><div class=""position-box "" data-position=""3""></div></div><div class=""position-wrapper""><div class=""key-label"">K</div><div class=""position-box "" data-position=""4""></div></div><div class=""position-wrapper""><div class=""key-label"">L</div><div class=""position-box "" data-position=""5""></div></div></div><div class=""finger-diagram-container"">
			<img src=""assets/finger-diagrams/finger-diagram-6pos.png"" alt=""Finger position guide"" class=""finger-diagram"" />
		</div>","d","1","d","1.7163490803009984","null","true","","","","",""
"","","","","","practice","feedback","html-keyboard-response","25","215654","0.0-10.0-0.0-1.0","P_4b6833d547037b3200d8ce381f31811a05aa17f5b5e943638920bb05b69eb0b2","697c608fb23a18f07d093e5b","697c60fa8004176b45d30e72","6","60","1200","12","null","","<div class=""feedback-message""><div class=""feedback-correct"">✓</div></div><div class=""stimulus-container""><div class=""position-wrapper""><div class=""key-label"">S</div><div class=""position-box "" data-position=""0""></div></div><div class=""position-wrapper""><div class=""key-label"">D</div><div class=""position-box active"" data-position=""1""></div></div><div class=""position-wrapper""><div class=""key-label"">F</div><div class=""position-box "" data-position=""2""></div></div><div class=""position-wrapper""><div class=""key-label"">J</div><div class=""position-box "" data-position=""3""></div></div><div class=""position-wrapper""><div class=""key-label"">K</div><div class=""position-box "" data-position=""4""></div></div><div class=""position-wrapper""><div class=""key-label"">L</div><div class=""position-box "" data-position=""5""></div></div></div><div class=""finger-diagram-container"">
			<img src=""assets/finger-diagrams/finger-diagram-6pos.png"" alt=""Finger position guide"" class=""finger-diagram"" />
		</div>","null","","","","","","","","","",""
"","","","","","practice","rsi","html-keyboard-response","26","215776","0.0-10.0-1.0","P_4b6833d547037b3200d8ce381f31811a05aa17f5b5e943638920bb05b69eb0b2","697c608fb23a18f07d093e5b","697c60fa8004176b45d30e72","6","60","1200","12","null","","<div class=""feedback-message""></div><div class=""stimulus-container""><div class=""position-wrapper""><div class=""key-label"">S</div><div class=""position-box "" data-position=""0""></div></div><div class=""position-wrapper""><div class=""key-label"">D</div><div class=""position-box "" data-position=""1""></div></div><div class=""position-wrapper""><div class=""key-label"">F</div><div class=""position-box "" data-position=""2""></div></div><div class=""position-wrapper""><div class=""key-label"">J</div><div class=""position-box "" data-position=""3""></div></div><div class=""position-wrapper""><div class=""key-label"">K</div><div class=""position-box "" data-position=""4""></div></div><div class=""position-wrapper""><div class=""key-label"">L</div><div class=""position-box "" data-position=""5""></div></div></div><div class=""finger-diagram-container"">
			<img src=""assets/finger-diagrams/finger-diagram-6pos.png"" alt=""Finger position guide"" class=""finger-diagram"" />
		</div>","null","","","","","","","","","",""
"","","","","","practice","stimulus","html-keyboard-response","27","216407","0.0-11.0-0.0-0.0","P_4b6833d547037b3200d8ce381f31811a05aa17f5b5e943638920bb05b69eb0b2","697c608fb23a18f07d093e5b","697c60fa8004176b45d30e72","6","60","1200","12","628","","<div class=""feedback-message""></div><div class=""stimulus-container""><div class=""position-wrapper""><div class=""key-label"">S</div><div class=""position-box "" data-position=""0""></div></div><div class=""position-wrapper""><div class=""key-label"">D</div><div class=""position-box "" data-position=""1""></div></div><div class=""position-wrapper""><div class=""key-label"">F</div><div class=""position-box active"" data-position=""2""></div></div><div class=""position-wrapper""><div class=""key-label"">J</div><div class=""position-box "" data-position=""3""></div></div><div class=""position-wrapper""><div class=""key-label"">K</div><div class=""position-box "" data-position=""4""></div></div><div class=""position-wrapper""><div class=""key-label"">L</div><div class=""position-box "" data-position=""5""></div></div></div><div class=""finger-diagram-container"">
			<img src=""assets/finger-diagrams/finger-diagram-6pos.png"" alt=""Finger position guide"" class=""finger-diagram"" />
		</div>","f","2","f","0.09237731181353705","36.01689574143718","true","","","","",""
"","","","","","practice","feedback","html-keyboard-response","28","216609","0.0-11.0-0.0-1.0","P_4b6833d547037b3200d8ce381f31811a05aa17f5b5e943638920bb05b69eb0b2","697c608fb23a18f07d093e5b","697c60fa8004176b45d30e72","6","60","1200","12","null","","<div class=""feedback-message""><div class=""feedback-correct"">✓</div></div><div class=""stimulus-container""><div class=""position-wrapper""><div class=""key-label"">S</div><div class=""position-box "" data-position=""0""></div></div><div class=""position-wrapper""><div class=""key-label"">D</div><div class=""position-box "" data-position=""1""></div></div><div class=""position-wrapper""><div class=""key-label"">F</div><div class=""position-box active"" data-position=""2""></div></div><div class=""position-wrapper""><div class=""key-label"">J</div><div class=""position-box "" data-position=""3""></div></div><div class=""position-wrapper""><div class=""key-label"">K</div><div class=""position-box "" data-position=""4""></div></div><div class=""position-wrapper""><div class=""key-label"">L</div><div class=""position-box "" data-position=""5""></div></div></div><div class=""finger-diagram-container"">
			<img src=""assets/finger-diagrams/finger-diagram-6pos.png"" alt=""Finger position guide"" class=""finger-diagram"" />
		</div>","null","","","","","","","","","",""
"","","","","","practice","rsi","html-keyboard-response","29","216731","0.0-11.0-1.0","P_4b6833d547037b3200d8ce381f31811a05aa17f5b5e943638920bb05b69eb0b2","697c608fb23a18f07d093e5b","697c60fa8004176b45d30e72","6","60","1200","12","null","","<div class=""feedback-message""></div><div class=""stimulus-container""><div class=""position-wrapper""><div class=""key-label"">S</div><div class=""position-box "" data-position=""0""></div></div><div class=""position-wrapper""><div class=""key-label"">D</div><div class=""position-box "" data-position=""1""></div></div><div class=""position-wrapper""><div class=""key-label"">F</div><div class=""position-box "" data-position=""2""></div></div><div class=""position-wrapper""><div class=""key-label"">J</div><div class=""position-box "" data-position=""3""></div></div><div class=""position-wrapper""><div class=""key-label"">K</div><div class=""position-box "" data-position=""4""></div></div><div class=""position-wrapper""><div class=""key-label"">L</div><div class=""position-box "" data-position=""5""></div></div></div><div class=""finger-diagram-container"">
			<img src=""assets/finger-diagrams/finger-diagram-6pos.png"" alt=""Finger position guide"" class=""finger-diagram"" />
		</div>","null","","","","","","","","","",""
"","","","","","practice","stimulus","html-keyboard-response","30","217396","0.0-12.0-0.0-0.0","P_4b6833d547037b3200d8ce381f31811a05aa17f5b5e943638920bb05b69eb0b2","697c608fb23a18f07d093e5b","697c60fa8004176b45d30e72","6","60","1200","12","662","","<div class=""feedback-message""></div><div class=""stimulus-container""><div class=""position-wrapper""><div class=""key-label"">S</div><div class=""position-box "" data-position=""0""></div></div><div class=""position-wrapper""><div class=""key-label"">D</div><div class=""position-box "" data-position=""1""></div></div><div class=""position-wrapper""><div class=""key-label"">F</div><div class=""position-box "" data-position=""2""></div></div><div class=""position-wrapper""><div class=""key-label"">J</div><div class=""position-box "" data-position=""3""></div></div><div class=""position-wrapper""><div class=""key-label"">K</div><div class=""position-box "" data-position=""4""></div></div><div class=""position-wrapper""><div class=""key-label"">L</div><div class=""position-box active"" data-position=""5""></div></div></div><div class=""finger-diagram-container"">
			<img src=""assets/finger-diagrams/finger-diagram-6pos.png"" alt=""Finger position guide"" class=""finger-diagram"" />
		</div>","l","5","l","1.6016287006430237","6.407472371591219","true","","","","",""
"","","","","","practice","feedback","html-keyboard-response","31","217599","0.0-12.0-0.0-1.0","P_4b6833d547037b3200d8ce381f31811a05aa17f5b5e943638920bb05b69eb0b2","697c608fb23a18f07d093e5b","697c60fa8004176b45d30e72","6","60","1200","12","null","","<div class=""feedback-message""><div class=""feedback-correct"">✓</div></div><div class=""stimulus-container""><div class=""position-wrapper""><div class=""key-label"">S</div><div class=""position-box "" data-position=""0""></div></div><div class=""position-wrapper""><div class=""key-label"">D</div><div class=""position-box "" data-position=""1""></div></div><div class=""position-wrapper""><div class=""key-label"">F</div><div class=""position-box "" data-position=""2""></div></div><div class=""position-wrapper""><div class=""key-label"">J</div><div class=""position-box "" data-position=""3""></div></div><div class=""position-wrapper""><div class=""key-label"">K</div><div class=""position-box "" data-position=""4""></div></div><div class=""position-wrapper""><div class=""key-label"">L</div><div class=""position-box active"" data-position=""5""></div></div></div><div class=""finger-diagram-container"">
			<img src=""assets/finger-diagrams/finger-diagram-6pos.png"" alt=""Finger position guide"" class=""finger-diagram"" />
		</div>","null","","","","","","","","","",""
"","","","","","practice","rsi","html-keyboard-response","32","217722","0.0-12.0-1.0","P_4b6833d547037b3200d8ce381f31811a05aa17f5b5e943638920bb05b69eb0b2","697c608fb23a18f07d093e5b","697c60fa8004176b45d30e72","6","60","1200","12","null","","<div class=""feedback-message""></div><div class=""stimulus-container""><div class=""position-wrapper""><div class=""key-label"">S</div><div class=""position-box "" data-position=""0""></div></div><div class=""position-wrapper""><div class=""key-label"">D</div><div class=""position-box "" data-position=""1""></div></div><div class=""position-wrapper""><div class=""key-label"">F</div><div class=""position-box "" data-position=""2""></div></div><div class=""position-wrapper""><div class=""key-label"">J</div><div class=""position-box "" data-position=""3""></div></div><div class=""position-wrapper""><div class=""key-label"">K</div><div class=""position-box "" data-position=""4""></div></div><div class=""position-wrapper""><div class=""key-label"">L</div><div class=""position-box "" data-position=""5""></div></div></div><div class=""finger-diagram-container"">
			<img src=""assets/finger-diagrams/finger-diagram-6pos.png"" alt=""Finger position guide"" class=""finger-diagram"" />
		</div>","null","","","","","","","","","",""
"","","","","","practice","stimulus","html-keyboard-response","33","218894","0.0-13.0-0.0-0.0","P_4b6833d547037b3200d8ce381f31811a05aa17f5b5e943638920bb05b69eb0b2","697c608fb23a18f07d093e5b","697c60fa8004176b45d30e72","6","60","1200","12","1169","","<div class=""feedback-message""></div><div class=""stimulus-container""><div class=""position-wrapper""><div class=""key-label"">S</div><div class=""position-box "" data-position=""0""></div></div><div class=""position-wrapper""><div class=""key-label"">D</div><div class=""position-box "" data-position=""1""></div></div><div class=""position-wrapper""><div class=""key-label"">F</div><div class=""position-box "" data-position=""2""></div></div><div class=""position-wrapper""><div class=""key-label"">J</div><div class=""position-box active"" data-position=""3""></div></div><div class=""position-wrapper""><div class=""key-label"">K</div><div class=""position-box "" data-position=""4""></div></div><div class=""position-wrapper""><div class=""key-label"">L</div><div class=""position-box "" data-position=""5""></div></div></div><div class=""finger-diagram-container"">
			<img src=""assets/finger-diagrams/finger-diagram-6pos.png"" alt=""Finger position guide"" class=""finger-diagram"" />
		</div>","j","3","j","1.7164586615480486","1.8672243003169464","true","","","","",""
"","","","","","practice","feedback","html-keyboard-response","34","219098","0.0-13.0-0.0-1.0","P_4b6833d547037b3200d8ce381f31811a05aa17f5b5e943638920bb05b69eb0b2","697c608fb23a18f07d093e5b","697c60fa8004176b45d30e72","6","60","1200","12","null","","<div class=""feedback-message""><div class=""feedback-correct"">✓</div></div><div class=""stimulus-container""><div class=""position-wrapper""><div class=""key-label"">S</div><div class=""position-box "" data-position=""0""></div></div><div class=""position-wrapper""><div class=""key-label"">D</div><div class=""position-box "" data-position=""1""></div></div><div class=""position-wrapper""><div class=""key-label"">F</div><div class=""position-box "" data-position=""2""></div></div><div class=""position-wrapper""><div class=""key-label"">J</div><div class=""position-box active"" data-position=""3""></div></div><div class=""position-wrapper""><div class=""key-label"">K</div><div class=""position-box "" data-position=""4""></div></div><div class=""position-wrapper""><div class=""key-label"">L</div><div class=""position-box "" data-position=""5""></div></div></div><div class=""finger-diagram-container"">
			<img src=""assets/finger-diagrams/finger-diagram-6pos.png"" alt=""Finger position guide"" class=""finger-diagram"" />
		</div>","null","","","","","","","","","",""
"","","","","","practice","rsi","html-keyboard-response","35","219220","0.0-13.0-1.0","P_4b6833d547037b3200d8ce381f31811a05aa17f5b5e943638920bb05b69eb0b2","697c608fb23a18f07d093e5b","697c60fa8004176b45d30e72","6","60","1200","12","null","","<div class=""feedback-message""></div><div class=""stimulus-container""><div class=""position-wrapper""><div class=""key-label"">S</div><div class=""position-box "" data-position=""0""></div></div><div class=""position-wrapper""><div class=""key-label"">D</div><div class=""position-box "" data-position=""1""></div></div><div class=""position-wrapper""><div class=""key-label"">F</div><div class=""position-box "" data-position=""2""></div></div><div class=""position-wrapper""><div class=""key-label"">J</div><div class=""position-box "" data-position=""3""></div></div><div class=""position-wrapper""><div class=""key-label"">K</div><div class=""position-box "" data-position=""4""></div></div><div class=""position-wrapper""><div class=""key-label"">L</div><div class=""position-box "" data-position=""5""></div></div></div><div class=""finger-diagram-container"">
			<img src=""assets/finger-diagrams/finger-diagram-6pos.png"" alt=""Finger position guide"" class=""finger-diagram"" />
		</div>","null","","","","","","","","","",""
"","","","","","practice","stimulus","html-keyboard-response","36","219750","0.0-14.0-0.0-0.0","P_4b6833d547037b3200d8ce381f31811a05aa17f5b5e943638920bb05b69eb0b2","697c608fb23a18f07d093e5b","697c60fa8004176b45d30e72","6","60","1200","12","528","","<div class=""feedback-message""></div><div class=""stimulus-container""><div class=""position-wrapper""><div class=""key-label"">S</div><div class=""position-box "" data-position=""0""></div></div><div class=""position-wrapper""><div class=""key-label"">D</div><div class=""position-box "" data-position=""1""></div></div><div class=""position-wrapper""><div class=""key-label"">F</div><div class=""position-box "" data-position=""2""></div></div><div class=""position-wrapper""><div class=""key-label"">J</div><div class=""position-box "" data-position=""3""></div></div><div class=""position-wrapper""><div class=""key-label"">K</div><div class=""position-box active"" data-position=""4""></div></div><div class=""position-wrapper""><div class=""key-label"">L</div><div class=""position-box "" data-position=""5""></div></div></div><div class=""finger-diagram-container"">
			<img src=""assets/finger-diagrams/finger-diagram-6pos.png"" alt=""Finger position guide"" class=""finger-diagram"" />
		</div>","k","4","k","1.919781834473742","1.00700334797659","true","","","","",""
"","","","","","practice","feedback","html-keyboard-response","37","219951","0.0-14.0-0.0-1.0","P_4b6833d547037b3200d8ce381f31811a05aa17f5b5e943638920bb05b69eb0b2","697c608fb23a18f07d093e5b","697c60fa8004176b45d30e72","6","60","1200","12","null","","<div class=""feedback-message""><div class=""feedback-correct"">✓</div></div><div class=""stimulus-container""><div class=""position-wrapper""><div class=""key-label"">S</div><div class=""position-box "" data-position=""0""></div></div><div class=""position-wrapper""><div class=""key-label"">D</div><div class=""position-box "" data-position=""1""></div></div><div class=""position-wrapper""><div class=""key-label"">F</div><div class=""position-box "" data-position=""2""></div></div><div class=""position-wrapper""><div class=""key-label"">J</div><div class=""position-box "" data-position=""3""></div></div><div class=""position-wrapper""><div class=""key-label"">K</div><div class=""position-box active"" data-position=""4""></div></div><div class=""position-wrapper""><div class=""key-label"">L</div><div class=""position-box "" data-position=""5""></div></div></div><div class=""finger-diagram-container"">
			<img src=""assets/finger-diagrams/finger-diagram-6pos.png"" alt=""Finger position guide"" class=""finger-diagram"" />
		</div>","null","","","","","","","","","",""
"","","","","","practice","rsi","html-keyboard-response","38","220073","0.0-14.0-1.0","P_4b6833d547037b3200d8ce381f31811a05aa17f5b5e943638920bb05b69eb0b2","697c608fb23a18f07d093e5b","697c60fa8004176b45d30e72","6","60","1200","12","null","","<div class=""feedback-message""></div><div class=""stimulus-container""><div class=""position-wrapper""><div class=""key-label"">S</div><div class=""position-box "" data-position=""0""></div></div><div class=""position-wrapper""><div class=""key-label"">D</div><div class=""position-box "" data-position=""1""></div></div><div class=""position-wrapper""><div class=""key-label"">F</div><div class=""position-box "" data-position=""2""></div></div><div class=""position-wrapper""><div class=""key-label"">J</div><div class=""position-box "" data-position=""3""></div></div><div class=""position-wrapper""><div class=""key-label"">K</div><div class=""position-box "" data-position=""4""></div></div><div class=""position-wrapper""><div class=""key-label"">L</div><div class=""position-box "" data-position=""5""></div></div></div><div class=""finger-diagram-container"">
			<img src=""assets/finger-diagrams/finger-diagram-6pos.png"" alt=""Finger position guide"" class=""finger-diagram"" />
		</div>","null","","","","","","","","","",""
"","","","","","practice","stimulus","html-keyboard-response","39","220877","0.0-15.0-0.0-0.0","P_4b6833d547037b3200d8ce381f31811a05aa17f5b5e943638920bb05b69eb0b2","697c608fb23a18f07d093e5b","697c60fa8004176b45d30e72","6","60","1200","12","801","","<div class=""feedback-message""></div><div class=""stimulus-container""><div class=""position-wrapper""><div class=""key-label"">S</div><div class=""position-box active"" data-position=""0""></div></div><div class=""position-wrapper""><div class=""key-label"">D</div><div class=""position-box "" data-position=""1""></div></div><div class=""position-wrapper""><div class=""key-label"">F</div><div class=""position-box "" data-position=""2""></div></div><div class=""position-wrapper""><div class=""key-label"">J</div><div class=""position-box "" data-position=""3""></div></div><div class=""position-wrapper""><div class=""key-label"">K</div><div class=""position-box "" data-position=""4""></div></div><div class=""position-wrapper""><div class=""key-label"">L</div><div class=""position-box "" data-position=""5""></div></div></div><div class=""finger-diagram-container"">
			<img src=""assets/finger-diagrams/finger-diagram-6pos.png"" alt=""Finger position guide"" class=""finger-diagram"" />
		</div>","s","0","s","0.6265709654819551","1.4191265827700734","true","","","","",""
"","","","","","practice","feedback","html-keyboard-response","40","221080","0.0-15.0-0.0-1.0","P_4b6833d547037b3200d8ce381f31811a05aa17f5b5e943638920bb05b69eb0b2","697c608fb23a18f07d093e5b","697c60fa8004176b45d30e72","6","60","1200","12","null","","<div class=""feedback-message""><div class=""feedback-correct"">✓</div></div><div class=""stimulus-container""><div class=""position-wrapper""><div class=""key-label"">S</div><div class=""position-box active"" data-position=""0""></div></div><div class=""position-wrapper""><div class=""key-label"">D</div><div class=""position-box "" data-position=""1""></div></div><div class=""position-wrapper""><div class=""key-label"">F</div><div class=""position-box "" data-position=""2""></div></div><div class=""position-wrapper""><div class=""key-label"">J</div><div class=""position-box "" data-position=""3""></div></div><div class=""position-wrapper""><div class=""key-label"">K</div><div class=""position-box "" data-position=""4""></div></div><div class=""position-wrapper""><div class=""key-label"">L</div><div class=""position-box "" data-position=""5""></div></div></div><div class=""finger-diagram-container"">
			<img src=""assets/finger-diagrams/finger-diagram-6pos.png"" alt=""Finger position guide"" class=""finger-diagram"" />
		</div>","null","","","","","","","","","",""
"","","","","","practice","rsi","html-keyboard-response","41","221202","0.0-15.0-1.0","P_4b6833d547037b3200d8ce381f31811a05aa17f5b5e943638920bb05b69eb0b2","697c608fb23a18f07d093e5b","697c60fa8004176b45d30e72","6","60","1200","12","null","","<div class=""feedback-message""></div><div class=""stimulus-container""><div class=""position-wrapper""><div class=""key-label"">S</div><div class=""position-box "" data-position=""0""></div></div><div class=""position-wrapper""><div class=""key-label"">D</div><div class=""position-box "" data-position=""1""></div></div><div class=""position-wrapper""><div class=""key-label"">F</div><div class=""position-box "" data-position=""2""></div></div><div class=""position-wrapper""><div class=""key-label"">J</div><div class=""position-box "" data-position=""3""></div></div><div class=""position-wrapper""><div class=""key-label"">K</div><div class=""position-box "" data-position=""4""></div></div><div class=""position-wrapper""><div class=""key-label"">L</div><div class=""position-box "" data-position=""5""></div></div></div><div class=""finger-diagram-container"">
			<img src=""assets/finger-diagrams/finger-diagram-6pos.png"" alt=""Finger position guide"" class=""finger-diagram"" />
		</div>","null","","","","","","","","","",""
"","","","","","practice","practice_end","html-keyboard-response","42","240984","0.0-16.0","P_4b6833d547037b3200d8ce381f31811a05aa17f5b5e943638920bb05b69eb0b2","697c608fb23a18f07d093e5b","697c60fa8004176b45d30e72","6","60","1200","12","19780","","
                <div class=""instruction-text"">
                    <h2>Practice Complete!</h2>
                    <p>You got 11 out of 12 trials correct.</p>
                    <p>Remember: Respond as quickly and accurately as possible.</p>
					<p>Now, you will complete 20 blocks of 60 trials.</p>
                    <p>Between blocks, you will get a break to rest.</p>
                    <p>The entire task takes about 26 minutes.</p>
                    <p><strong>The main task will now begin. Press the spacebar to start.</strong></p>
                </div>
            "," ","","","","","","","","","",""
"","","","","","main","stimulus","html-keyboard-response","43","244950","0.0-17.0-0.0-0.0","P_4b6833d547037b3200d8ce381f31811a05aa17f5b5e943638920bb05b69eb0b2","697c608fb23a18f07d093e5b","697c60fa8004176b45d30e72","6","60","1200","12","3964","","<div class=""feedback-message""></div><div class=""stimulus-container""><div class=""position-wrapper""><div class=""position-box active"" data-position=""0""></div></div><div class=""position-wrapper""><div class=""position-box "" data-position=""1""></div></div><div class=""position-wrapper""><div class=""position-box "" data-position=""2""></div></div><div class=""position-wrapper""><div class=""position-box "" data-position=""3""></div></div><div class=""position-wrapper""><div class=""position-box "" data-position=""4""></div></div><div class=""position-wrapper""><div class=""position-box "" data-position=""5""></div></div></div><div class=""finger-diagram-container"">
			<img src=""assets/finger-diagrams/finger-diagram-6pos.png"" alt=""Finger position guide"" class=""finger-diagram"" />
		</div>","s","0","s","0.6265709654819551","null","true","0","0","0","",""
"","","","","","main","feedback","html-keyboard-response","44","245155","0.0-17.0-0.0-1.0","P_4b6833d547037b3200d8ce381f31811a05aa17f5b5e943638920bb05b69eb0b2","697c608fb23a18f07d093e5b","697c60fa8004176b45d30e72","6","60","1200","12","null","","<div class=""feedback-message""><div class=""feedback-correct"">✓</div></div><div class=""stimulus-container""><div class=""position-wrapper""><div class=""position-box active"" data-position=""0""></div></div><div class=""position-wrapper""><div class=""position-box "" data-position=""1""></div></div><div class=""position-wrapper""><div class=""position-box "" data-position=""2""></div></div><div class=""position-wrapper""><div class=""position-box "" data-position=""3""></div></div><div class=""position-wrapper""><div class=""position-box "" data-position=""4""></div></div><div class=""position-wrapper""><div class=""position-box "" data-position=""5""></div></div></div><div class=""finger-diagram-container"">
			<img src=""assets/finger-diagrams/finger-diagram-6pos.png"" alt=""Finger position guide"" class=""finger-diagram"" />
		</div>","null","","","","","","","","","",""
"","","","","","main","rsi","html-keyboard-response","45","245277","0.0-17.0-1.0","P_4b6833d547037b3200d8ce381f31811a05aa17f5b5e943638920bb05b69eb0b2","697c608fb23a18f07d093e5b","697c60fa8004176b45d30e72","6","60","1200","12","null","","<div class=""feedback-message""></div><div class=""stimulus-container""><div class=""position-wrapper""><div class=""position-box "" data-position=""0""></div></div><div class=""position-wrapper""><div class=""position-box "" data-position=""1""></div></div><div class=""position-wrapper""><div class=""position-box "" data-position=""2""></div></div><div class=""position-wrapper""><div class=""position-box "" data-position=""3""></div></div><div class=""position-wrapper""><div class=""position-box "" data-position=""4""></div></div><div class=""position-wrapper""><div class=""position-box "" data-position=""5""></div></div></div><div class=""finger-diagram-container"">
			<img src=""assets/finger-diagrams/finger-diagram-6pos.png"" alt=""Finger position guide"" class=""finger-diagram"" />
		</div>","null","","","","","","","","","",""
"","","","","","main","stimulus","html-keyboard-response","46","246161","0.0-18.0-0.0-0.0","P_4b6833d547037b3200d8ce381f31811a05aa17f5b5e943638920bb05b69eb0b2","697c608fb23a18f07d093e5b","697c60fa8004176b45d30e72","6","60","1200","12","881","","<div class=""feedback-message""></div><div class=""stimulus-container""><div class=""position-wrapper""><div class=""position-box "" data-position=""0""></div></div><div class=""position-wrapper""><div class=""position-box "" data-position=""1""></div></div><div class=""position-wrapper""><div class=""position-box "" data-position=""2""></div></div><div class=""position-wrapper""><div class=""position-box "" data-position=""3""></div></div><div class=""position-wrapper""><div class=""position-box "" data-position=""4""></div></div><div class=""position-wrapper""><div class=""position-box active"" data-position=""5""></div></div></div><div class=""finger-diagram-container"">
			<img src=""assets/finger-diagrams/finger-diagram-6pos.png"" alt=""Finger position guide"" class=""finger-diagram"" />
		</div>","l","5","l","1.6016287006430237","2.8191226921226544","true","0","1","1","",""
"","","","","","main","feedback","html-keyboard-response","47","246364","0.0-18.0-0.0-1.0","P_4b6833d547037b3200d8ce381f31811a05aa17f5b5e943638920bb05b69eb0b2","697c608fb23a18f07d093e5b","697c60fa8004176b45d30e72","6","60","1200","12","null","","<div class=""feedback-message""><div class=""feedback-correct"">✓</div></div><div class=""stimulus-container""><div class=""position-wrapper""><div class=""position-box "" data-position=""0""></div></div><div class=""position-wrapper""><div class=""position-box "" data-position=""1""></div></div><div class=""position-wrapper""><div class=""position-box "" data-position=""2""></div></div><div class=""position-wrapper""><div class=""position-box "" data-position=""3""></div></div><div class=""position-wrapper""><div class=""position-box "" data-position=""4""></div></div><div class=""position-wrapper""><div class=""position-box active"" data-position=""5""></div></div></div><div class=""finger-diagram-container"">
			<img src=""assets/finger-diagrams/finger-diagram-6pos.png"" alt=""Finger position guide"" class=""finger-diagram"" />
		</div>","null","","","","","","","","","",""
"","","","","","main","rsi","html-keyboard-response","48","246487","0.0-18.0-1.0","P_4b6833d547037b3200d8ce381f31811a05aa17f5b5e943638920bb05b69eb0b2","697c608fb23a18f07d093e5b","697c60fa8004176b45d30e72","6","60","1200","12","null","","<div class=""feedback-message""></div><div class=""stimulus-container""><div class=""position-wrapper""><div class=""position-box "" data-position=""0""></div></div><div class=""position-wrapper""><div class=""position-box "" data-position=""1""></div></div><div class=""position-wrapper""><div class=""position-box "" data-position=""2""></div></div><div class=""position-wrapper""><div class=""position-box "" data-position=""3""></div></div><div class=""position-wrapper""><div class=""position-box "" data-position=""4""></div></div><div class=""position-wrapper""><div class=""position-box "" data-position=""5""></div></div></div><div class=""finger-diagram-container"">
			<img src=""assets/finger-diagrams/finger-diagram-6pos.png"" alt=""Finger position guide"" class=""finger-diagram"" />
		</div>","null","","","","","","","","","",""
"","","","","","main","stimulus","html-keyboard-response","49","247053","0.0-19.0-0.0-0.0","P_4b6833d547037b3200d8ce381f31811a05aa17f5b5e943638920bb05b69eb0b2","697c608fb23a18f07d093e5b","697c60fa8004176b45d30e72","6","60","1200","12","563","","<div class=""feedback-message""></div><div class=""stimulus-container""><div class=""position-wrapper""><div class=""position-box active"" data-position=""0""></div></div><div class=""position-wrapper""><div class=""position-box "" data-position=""1""></div></div><div class=""position-wrapper""><div class=""position-box "" data-position=""2""></div></div><div class=""position-wrapper""><div class=""position-box "" data-position=""3""></div></div><div class=""position-wrapper""><div class=""position-box "" data-position=""4""></div></div><div class=""position-wrapper""><div class=""position-box "" data-position=""5""></div></div></div><div class=""finger-diagram-container"">
			<img src=""assets/finger-diagrams/finger-diagram-6pos.png"" alt=""Finger position guide"" class=""finger-diagram"" />
		</div>","s","0","s","0.6265709654819551","1.0125719939883875","true","0","2","2","",""
"","","","","","main","feedback","html-keyboard-response","50","247255","0.0-19.0-0.0-1.0","P_4b6833d547037b3200d8ce381f31811a05aa17f5b5e943638920bb05b69eb0b2","697c608fb23a18f07d093e5b","697c60fa8004176b45d30e72","6","60","1200","12","null","","<div class=""feedback-message""><div class=""feedback-correct"">✓</div></div><div class=""stimulus-container""><div class=""position-wrapper""><div class=""position-box active"" data-position=""0""></div></div><div class=""position-wrapper""><div class=""position-box "" data-position=""1""></div></div><div class=""position-wrapper""><div class=""position-box "" data-position=""2""></div></div><div class=""position-wrapper""><div class=""position-box "" data-position=""3""></div></div><div class=""position-wrapper""><div class=""position-box "" data-position=""4""></div></div><div class=""position-wrapper""><div class=""position-box "" data-position=""5""></div></div></div><div class=""finger-diagram-container"">
			<img src=""assets/finger-diagrams/finger-diagram-6pos.png"" alt=""Finger position guide"" class=""finger-diagram"" />
		</div>","null","","","","","","","","","",""
"","","","","","main","rsi","html-keyboard-response","51","247379","0.0-19.0-1.0","P_4b6833d547037b3200d8ce381f31811a05aa17f5b5e943638920bb05b69eb0b2","697c608fb23a18f07d093e5b","697c60fa8004176b45d30e72","6","60","1200","12","null","","<div class=""feedback-message""></div><div class=""stimulus-container""><div class=""position-wrapper""><div class=""position-box "" data-position=""0""></div></div><div class=""position-wrapper""><div class=""position-box "" data-position=""1""></div></div><div class=""position-wrapper""><div class=""position-box "" data-position=""2""></div></div><div class=""position-wrapper""><div class=""position-box "" data-position=""3""></div></div><div class=""position-wrapper""><div class=""position-box "" data-position=""4""></div></div><div class=""position-wrapper""><div class=""position-box "" data-position=""5""></div></div></div><div class=""finger-diagram-container"">
			<img src=""assets/finger-diagrams/finger-diagram-6pos.png"" alt=""Finger position guide"" class=""finger-diagram"" />
		</div>","null","","","","","","","","","",""
"","","","","","main","stimulus","html-keyboard-response","52","247930","0.0-20.0-0.0-0.0","P_4b6833d547037b3200d8ce381f31811a05aa17f5b5e943638920bb05b69eb0b2","697c608fb23a18f07d093e5b","697c60fa8004176b45d30e72","6","60","1200","12","548","","<div class=""feedback-message""></div><div class=""stimulus-container""><div class=""position-wrapper""><div class=""position-box "" data-position=""0""></div></div><div class=""position-wrapper""><div class=""position-box "" data-position=""1""></div></div><div class=""position-wrapper""><div class=""position-box "" data-position=""2""></div></div><div class=""position-wrapper""><div class=""position-box "" data-position=""3""></div></div><div class=""position-wrapper""><div class=""position-box "" data-position=""4""></div></div><div class=""position-wrapper""><div class=""position-box active"" data-position=""5""></div></div></div><div class=""finger-diagram-container"">
			<img src=""assets/finger-diagrams/finger-diagram-6pos.png"" alt=""Finger position guide"" class=""finger-diagram"" />
		</div>","l","5","l","1.6016287006430237","2.8191226921226544","true","0","3","3","",""
"","","","","","main","feedback","html-keyboard-response","53","248134","0.0-20.0-0.0-1.0","P_4b6833d547037b3200d8ce381f31811a05aa17f5b5e943638920bb05b69eb0b2","697c608fb23a18f07d093e5b","697c60fa8004176b45d30e72","6","60","1200","12","null","","<div class=""feedback-message""><div class=""feedback-correct"">✓</div></div><div class=""stimulus-container""><div class=""position-wrapper""><div class=""position-box "" data-position=""0""></div></div><div class=""position-wrapper""><div class=""position-box "" data-position=""1""></div></div><div class=""position-wrapper""><div class=""position-box "" data-position=""2""></div></div><div class=""position-wrapper""><div class=""position-box "" data-position=""3""></div></div><div class=""position-wrapper""><div class=""position-box "" data-position=""4""></div></div><div class=""position-wrapper""><div class=""position-box active"" data-position=""5""></div></div></div><div class=""finger-diagram-container"">
			<img src=""assets/finger-diagrams/finger-diagram-6pos.png"" alt=""Finger position guide"" class=""finger-diagram"" />
		</div>","null","","","","","","","","","",""
"","","","","","main","rsi","html-keyboard-response","54","248257","0.0-20.0-1.0","P_4b6833d547037b3200d8ce381f31811a05aa17f5b5e943638920bb05b69eb0b2","697c608fb23a18f07d093e5b","697c60fa8004176b45d30e72","6","60","1200","12","null","","<div class=""feedback-message""></div><div class=""stimulus-container""><div class=""position-wrapper""><div class=""position-box "" data-position=""0""></div></div><div class=""position-wrapper""><div class=""position-box "" data-position=""1""></div></div><div class=""position-wrapper""><div class=""position-box "" data-position=""2""></div></div><div class=""position-wrapper""><div class=""position-box "" data-position=""3""></div></div><div class=""position-wrapper""><div class=""position-box "" data-position=""4""></div></div><div class=""position-wrapper""><div class=""position-box "" data-position=""5""></div></div></div><div class=""finger-diagram-container"">
			<img src=""assets/finger-diagrams/finger-diagram-6pos.png"" alt=""Finger position guide"" class=""finger-diagram"" />
		</div>","null","","","","","","","","","",""
"","","","","","main","stimulus","html-keyboard-response","55","248887","0.0-21.0-0.0-0.0","P_4b6833d547037b3200d8ce381f31811a05aa17f5b5e943638920bb05b69eb0b2","697c608fb23a18f07d093e5b","697c60fa8004176b45d30e72","6","60","1200","12","628","","<div class=""feedback-message""></div><div class=""stimulus-container""><div class=""position-wrapper""><div class=""position-box active"" data-position=""0""></div></div><div class=""position-wrapper""><div class=""position-box "" data-position=""1""></div></div><div class=""position-wrapper""><div class=""position-box "" data-position=""2""></div></div><div class=""position-wrapper""><div class=""position-box "" data-position=""3""></div></div><div class=""position-wrapper""><div class=""position-box "" data-position=""4""></div></div><div class=""position-wrapper""><div class=""position-box "" data-position=""5""></div></div></div><div class=""finger-diagram-container"">
			<img src=""assets/finger-diagrams/finger-diagram-6pos.png"" alt=""Finger position guide"" class=""finger-diagram"" />
		</div>","s","0","s","0.6265709654819551","1.0125719939883875","true","0","4","4","",""
"","","","","","main","feedback","html-keyboard-response","56","249090","0.0-21.0-0.0-1.0","P_4b6833d547037b3200d8ce381f31811a05aa17f5b5e943638920bb05b69eb0b2","697c608fb23a18f07d093e5b","697c60fa8004176b45d30e72","6","60","1200","12","null","","<div class=""feedback-message""><div class=""feedback-correct"">✓</div></div><div class=""stimulus-container""><div class=""position-wrapper""><div class=""position-box active"" data-position=""0""></div></div><div class=""position-wrapper""><div class=""position-box "" data-position=""1""></div></div><div class=""position-wrapper""><div class=""position-box "" data-position=""2""></div></div><div class=""position-wrapper""><div class=""position-box "" data-position=""3""></div></div><div class=""position-wrapper""><div class=""position-box "" data-position=""4""></div></div><div class=""position-wrapper""><div class=""position-box "" data-position=""5""></div></div></div><div class=""finger-diagram-container"">
			<img src=""assets/finger-diagrams/finger-diagram-6pos.png"" alt=""Finger position guide"" class=""finger-diagram"" />
		</div>","null","","","","","","","","","",""
"","","","","","main","rsi","html-keyboard-response","57","249213","0.0-21.0-1.0","P_4b6833d547037b3200d8ce381f31811a05aa17f5b5e943638920bb05b69eb0b2","697c608fb23a18f07d093e5b","697c60fa8004176b45d30e72","6","60","1200","12","null","","<div class=""feedback-message""></div><div class=""stimulus-container""><div class=""position-wrapper""><div class=""position-box "" data-position=""0""></div></div><div class=""position-wrapper""><div class=""position-box "" data-position=""1""></div></div><div class=""position-wrapper""><div class=""position-box "" data-position=""2""></div></div><div class=""position-wrapper""><div class=""position-box "" data-position=""3""></div></div><div class=""position-wrapper""><div class=""position-box "" data-position=""4""></div></div><div class=""position-wrapper""><div class=""position-box "" data-position=""5""></div></div></div><div class=""finger-diagram-container"">
			<img src=""assets/finger-diagrams/finger-diagram-6pos.png"" alt=""Finger position guide"" class=""finger-diagram"" />
		</div>","null","","","","","","","","","",""
"","","","","","main","stimulus","html-keyboard-response","58","250842","0.0-22.0-0.0-0.0","P_4b6833d547037b3200d8ce381f31811a05aa17f5b5e943638920bb05b69eb0b2","697c608fb23a18f07d093e5b","697c60fa8004176b45d30e72","6","60","1200","12","1626","","<div class=""feedback-message""></div><div class=""stimulus-container""><div class=""position-wrapper""><div class=""position-box "" data-position=""0""></div></div><div class=""position-wrapper""><div class=""position-box "" data-position=""1""></div></div><div class=""position-wrapper""><div class=""position-box active"" data-position=""2""></div></div><div class=""position-wrapper""><div class=""position-box "" data-position=""3""></div></div><div class=""position-wrapper""><div class=""position-box "" data-position=""4""></div></div><div class=""position-wrapper""><div class=""position-box "" data-position=""5""></div></div></div><div class=""finger-diagram-container"">
			<img src=""assets/finger-diagrams/finger-diagram-6pos.png"" alt=""Finger position guide"" class=""finger-diagram"" />
		</div>","f","2","f","0.09237731181353705","0.22743527250800727","true","0","5","5","",""
"","","","","","main","feedback","html-keyboard-response","59","251046","0.0-22.0-0.0-1.0","P_4b6833d547037b3200d8ce381f31811a05aa17f5b5e943638920bb05b69eb0b2","697c608fb23a18f07d093e5b","697c60fa8004176b45d30e72","6","60","1200","12","null","","<div class=""feedback-message""><div class=""feedback-correct"">✓</div></div><div class=""stimulus-container""><div class=""position-wrapper""><div class=""position-box "" data-position=""0""></div></div><div class=""position-wrapper""><div class=""position-box "" data-position=""1""></div></div><div class=""position-wrapper""><div class=""position-box active"" data-position=""2""></div></div><div class=""position-wrapper""><div class=""position-box "" data-position=""3""></div></div><div class=""position-wrapper""><div class=""position-box "" data-position=""4""></div></div><div class=""position-wrapper""><div class=""position-box "" data-position=""5""></div></div></div><div class=""finger-diagram-container"">
			<img src=""assets/finger-diagrams/finger-diagram-6pos.png"" alt=""Finger position guide"" class=""finger-diagram"" />
		</div>","null","","","","","","","","","",""
"","","","","","main","rsi","html-keyboard-response","60","251169","0.0-22.0-1.0","P_4b6833d547037b3200d8ce381f31811a05aa17f5b5e943638920bb05b69eb0b2","697c608fb23a18f07d093e5b","697c60fa8004176b45d30e72","6","60","1200","12","null","","<div class=""feedback-message""></div><div class=""stimulus-container""><div class=""position-wrapper""><div class=""position-box "" data-position=""0""></div></div><div class=""position-wrapper""><div class=""position-box "" data-position=""1""></div></div><div class=""position-wrapper""><div class=""position-box "" data-position=""2""></div></div><div class=""position-wrapper""><div class=""position-box "" data-position=""3""></div></div><div class=""position-wrapper""><div class=""position-box "" data-position=""4""></div></div><div class=""position-wrapper""><div class=""position-box "" data-position=""5""></div></div></div><div class=""finger-diagram-container"">
			<img src=""assets/finger-diagrams/finger-diagram-6pos.png"" alt=""Finger position guide"" class=""finger-diagram"" />
		</div>","null","","","","","","","","","",""
"","","","","","main","stimulus","html-keyboard-response","61","251810","0.0-23.0-0.0-0.0","P_4b6833d547037b3200d8ce381f31811a05aa17f5b5e943638920bb05b69eb0b2","697c608fb23a18f07d093e5b","697c60fa8004176b45d30e72","6","60","1200","12","639","","<div class=""feedback-message""></div><div class=""stimulus-container""><div class=""position-wrapper""><div class=""position-box "" data-position=""0""></div></div><div class=""position-wrapper""><div class=""position-box active"" data-position=""1""></div></div><div class=""position-wrapper""><div class=""position-box "" data-position=""2""></div></div><div class=""position-wrapper""><div class=""position-box "" data-position=""3""></div></div><div class=""position-wrapper""><div class=""position-box "" data-position=""4""></div></div><div class=""position-wrapper""><div class=""position-box "" data-position=""5""></div></div></div><div class=""finger-diagram-container"">
			<img src=""assets/finger-diagrams/finger-diagram-6pos.png"" alt=""Finger position guide"" class=""finger-diagram"" />
		</div>","d","1","d","1.7163490803009984","0.01709636891849747","true","0","6","6","",""
"","","","","","main","feedback","html-keyboard-response","62","252014","0.0-23.0-0.0-1.0","P_4b6833d547037b3200d8ce381f31811a05aa17f5b5e943638920bb05b69eb0b2","697c608fb23a18f07d093e5b","697c60fa8004176b45d30e72","6","60","1200","12","null","","<div class=""feedback-message""><div class=""feedback-correct"">✓</div></div><div class=""stimulus-container""><div class=""position-wrapper""><div class=""position-box "" data-position=""0""></div></div><div class=""position-wrapper""><div class=""position-box active"" data-position=""1""></div></div><div class=""position-wrapper""><div class=""position-box "" data-position=""2""></div></div><div class=""position-wrapper""><div class=""position-box "" data-position=""3""></div></div><div class=""position-wrapper""><div class=""position-box "" data-position=""4""></div></div><div class=""position-wrapper""><div class=""position-box "" data-position=""5""></div></div></div><div class=""finger-diagram-container"">
			<img src=""assets/finger-diagrams/finger-diagram-6pos.png"" alt=""Finger position guide"" class=""finger-diagram"" />
		</div>","null","","","","","","","","","",""
"","","","","","main","rsi","html-keyboard-response","63","252137","0.0-23.0-1.0","P_4b6833d547037b3200d8ce381f31811a05aa17f5b5e943638920bb05b69eb0b2","697c608fb23a18f07d093e5b","697c60fa8004176b45d30e72","6","60","1200","12","null","","<div class=""feedback-message""></div><div class=""stimulus-container""><div class=""position-wrapper""><div class=""position-box "" data-position=""0""></div></div><div class=""position-wrapper""><div class=""position-box "" data-position=""1""></div></div><div class=""position-wrapper""><div class=""position-box "" data-position=""2""></div></div><div class=""position-wrapper""><div class=""position-box "" data-position=""3""></div></div><div class=""position-wrapper""><div class=""position-box "" data-position=""4""></div></div><div class=""position-wrapper""><div class=""position-box "" data-position=""5""></div></div></div><div class=""finger-diagram-container"">
			<img src=""assets/finger-diagrams/finger-diagram-6pos.png"" alt=""Finger position guide"" class=""finger-diagram"" />
		</div>","null","","","","","","","","","",""
"","","","","","main","stimulus","html-keyboard-response","64","253365","0.0-24.0-0.0-0.0","P_4b6833d547037b3200d8ce381f31811a05aa17f5b5e943638920bb05b69eb0b2","697c608fb23a18f07d093e5b","697c60fa8004176b45d30e72","6","60","1200","12","1226","","<div class=""feedback-message""></div><div class=""stimulus-container""><div class=""position-wrapper""><div class=""position-box "" data-position=""0""></div></div><div class=""position-wrapper""><div class=""position-box "" data-position=""1""></div></div><div class=""position-wrapper""><div class=""position-box "" data-position=""2""></div></div><div class=""position-wrapper""><div class=""position-box "" data-position=""3""></div></div><div class=""position-wrapper""><div class=""position-box active"" data-position=""4""></div></div><div class=""position-wrapper""><div class=""position-box "" data-position=""5""></div></div></div><div class=""finger-diagram-container"">
			<img src=""assets/finger-diagrams/finger-diagram-6pos.png"" alt=""Finger position guide"" class=""finger-diagram"" />
		</div>","k","4","k","1.919781834473742","1.0067602970615734","true","0","7","7","",""
"","","","","","main","feedback","html-keyboard-response","65","253568","0.0-24.0-0.0-1.0","P_4b6833d547037b3200d8ce381f31811a05aa17f5b5e943638920bb05b69eb0b2","697c608fb23a18f07d093e5b","697c60fa8004176b45d30e72","6","60","1200","12","null","","<div class=""feedback-message""><div class=""feedback-correct"">✓</div></div><div class=""stimulus-container""><div class=""position-wrapper""><div class=""position-box "" data-position=""0""></div></div><div class=""position-wrapper""><div class=""position-box "" data-position=""1""></div></div><div class=""position-wrapper""><div class=""position-box "" data-position=""2""></div></div><div class=""position-wrapper""><div class=""position-box "" data-position=""3""></div></div><div class=""position-wrapper""><div class=""position-box active"" data-position=""4""></div></div><div class=""position-wrapper""><div class=""position-box "" data-position=""5""></div></div></div><div class=""finger-diagram-container"">
			<img src=""assets/finger-diagrams/finger-diagram-6pos.png"" alt=""Finger position guide"" class=""finger-diagram"" />
		</div>","null","","","","","","","","","",""
"","","","","","main","rsi","html-keyboard-response","66","253691","0.0-24.0-1.0","P_4b6833d547037b3200d8ce381f31811a05aa17f5b5e943638920bb05b69eb0b2","697c608fb23a18f07d093e5b","697c60fa8004176b45d30e72","6","60","1200","12","null","","<div class=""feedback-message""></div><div class=""stimulus-container""><div class=""position-wrapper""><div class=""position-box "" data-position=""0""></div></div><div class=""position-wrapper""><div class=""position-box "" data-position=""1""></div></div><div class=""position-wrapper""><div class=""position-box "" data-position=""2""></div></div><div class=""position-wrapper""><div class=""position-box "" data-position=""3""></div></div><div class=""position-wrapper""><div class=""position-box "" data-position=""4""></div></div><div class=""position-wrapper""><div class=""position-box "" data-position=""5""></div></div></div><div class=""finger-diagram-container"">
			<img src=""assets/finger-diagrams/finger-diagram-6pos.png"" alt=""Finger position guide"" class=""finger-diagram"" />
		</div>","null","","","","","","","","","",""
"","","","","","main","stimulus","html-keyboard-response","67","254366","0.0-25.0-0.0-0.0","P_4b6833d547037b3200d8ce381f31811a05aa17f5b5e943638920bb05b69eb0b2","697c608fb23a18f07d093e5b","697c60fa8004176b45d30e72","6","60","1200","12","672","","<div class=""feedback-message""></div><div class=""stimulus-container""><div class=""position-wrapper""><div class=""position-box active"" data-position=""0""></div></div><div class=""position-wrapper""><div class=""position-box "" data-position=""1""></div></div><div class=""position-wrapper""><div class=""position-box "" data-position=""2""></div></div><div class=""position-wrapper""><div class=""position-box "" data-position=""3""></div></div><div class=""position-wrapper""><div class=""position-box "" data-position=""4""></div></div><div class=""position-wrapper""><div class=""position-box "" data-position=""5""></div></div></div><div class=""finger-diagram-container"">
			<img src=""assets/finger-diagrams/finger-diagram-6pos.png"" alt=""Finger position guide"" class=""finger-diagram"" />
		</div>","s","0","s","0.6265709654819551","1.4191265827700734","true","0","8","8","",""
"","","","","","main","feedback","html-keyboard-response","68","254568","0.0-25.0-0.0-1.0","P_4b6833d547037b3200d8ce381f31811a05aa17f5b5e943638920bb05b69eb0b2","697c608fb23a18f07d093e5b","697c60fa8004176b45d30e72","6","60","1200","12","null","","<div class=""feedback-message""><div class=""feedback-correct"">✓</div></div><div class=""stimulus-container""><div class=""position-wrapper""><div class=""position-box active"" data-position=""0""></div></div><div class=""position-wrapper""><div class=""position-box "" data-position=""1""></div></div><div class=""position-wrapper""><div class=""position-box "" data-position=""2""></div></div><div class=""position-wrapper""><div class=""position-box "" data-position=""3""></div></div><div class=""position-wrapper""><div class=""position-box "" data-position=""4""></div></div><div class=""position-wrapper""><div class=""position-box "" data-position=""5""></div></div></div><div class=""finger-diagram-container"">
			<img src=""assets/finger-diagrams/finger-diagram-6pos.png"" alt=""Finger position guide"" class=""finger-diagram"" />
		</div>","null","","","","","","","","","",""
"","","","","","main","rsi","html-keyboard-response","69","254691","0.0-25.0-1.0","P_4b6833d547037b3200d8ce381f31811a05aa17f5b5e943638920bb05b69eb0b2","697c608fb23a18f07d093e5b","697c60fa8004176b45d30e72","6","60","1200","12","null","","<div class=""feedback-message""></div><div class=""stimulus-container""><div class=""position-wrapper""><div class=""position-box "" data-position=""0""></div></div><div class=""position-wrapper""><div class=""position-box "" data-position=""1""></div></div><div class=""position-wrapper""><div class=""position-box "" data-position=""2""></div></div><div class=""position-wrapper""><div class=""position-box "" data-position=""3""></div></div><div class=""position-wrapper""><div class=""position-box "" data-position=""4""></div></div><div class=""position-wrapper""><div class=""position-box "" data-position=""5""></div></div></div><div class=""finger-diagram-container"">
			<img src=""assets/finger-diagrams/finger-diagram-6pos.png"" alt=""Finger position guide"" class=""finger-diagram"" />
		</div>","null","","","","","","","","","",""
"","","","","","main","stimulus","html-keyboard-response","70","255414","0.0-26.0-0.0-0.0","P_4b6833d547037b3200d8ce381f31811a05aa17f5b5e943638920bb05b69eb0b2","697c608fb23a18f07d093e5b","697c60fa8004176b45d30e72","6","60","1200","12","719","","<div class=""feedback-message""></div><div class=""stimulus-container""><div class=""position-wrapper""><div class=""position-box "" data-position=""0""></div></div><div class=""position-wrapper""><div class=""position-box "" data-position=""1""></div></div><div class=""position-wrapper""><div class=""position-box active"" data-position=""2""></div></div><div class=""position-wrapper""><div class=""position-box "" data-position=""3""></div></div><div class=""position-wrapper""><div class=""position-box "" data-position=""4""></div></div><div class=""position-wrapper""><div class=""position-box "" data-position=""5""></div></div></div><div class=""finger-diagram-container"">
			<img src=""assets/finger-diagrams/finger-diagram-6pos.png"" alt=""Finger position guide"" class=""finger-diagram"" />
		</div>","f","2","f","0.09237731181353705","0.22743527250800727","true","0","9","9","",""
"","","","","","main","feedback","html-keyboard-response","71","255616","0.0-26.0-0.0-1.0","P_4b6833d547037b3200d8ce381f31811a05aa17f5b5e943638920bb05b69eb0b2","697c608fb23a18f07d093e5b","697c60fa8004176b45d30e72","6","60","1200","12","null","","<div class=""feedback-message""><div class=""feedback-correct"">✓</div></div><div class=""stimulus-container""><div class=""position-wrapper""><div class=""position-box "" data-position=""0""></div></div><div class=""position-wrapper""><div class=""position-box "" data-position=""1""></div></div><div class=""position-wrapper""><div class=""position-box active"" data-position=""2""></div></div><div class=""position-wrapper""><div class=""position-box "" data-position=""3""></div></div><div class=""position-wrapper""><div class=""position-box "" data-position=""4""></div></div><div class=""position-wrapper""><div class=""position-box "" data-position=""5""></div></div></div><div class=""finger-diagram-container"">
			<img src=""assets/finger-diagrams/finger-diagram-6pos.png"" alt=""Finger position guide"" class=""finger-diagram"" />
		</div>","null","","","","","","","","","",""
"","","","","","main","rsi","html-keyboard-response","72","255738","0.0-26.0-1.0","P_4b6833d547037b3200d8ce381f31811a05aa17f5b5e943638920bb05b69eb0b2","697c608fb23a18f07d093e5b","697c60fa8004176b45d30e72","6","60","1200","12","null","","<div class=""feedback-message""></div><div class=""stimulus-container""><div class=""position-wrapper""><div class=""position-box "" data-position=""0""></div></div><div class=""position-wrapper""><div class=""position-box "" data-position=""1""></div></div><div class=""position-wrapper""><div class=""position-box "" data-position=""2""></div></div><div class=""position-wrapper""><div class=""position-box "" data-position=""3""></div></div><div class=""position-wrapper""><div class=""position-box "" data-position=""4""></div></div><div class=""position-wrapper""><div class=""position-box "" data-position=""5""></div></div></div><div class=""finger-diagram-container"">
			<img src=""assets/finger-diagrams/finger-diagram-6pos.png"" alt=""Finger position guide"" class=""finger-diagram"" />
		</div>","null","","","","","","","","","",""
"","","","","","main","stimulus","html-keyboard-response","73","256997","0.0-27.0-0.0-0.0","P_4b6833d547037b3200d8ce381f31811a05aa17f5b5e943638920bb05b69eb0b2","697c608fb23a18f07d093e5b","697c60fa8004176b45d30e72","6","60","1200","12","1255","","<div class=""feedback-message""></div><div class=""stimulus-container""><div class=""position-wrapper""><div class=""position-box "" data-position=""0""></div></div><div class=""position-wrapper""><div class=""position-box active"" data-position=""1""></div></div><div class=""position-wrapper""><div class=""position-box "" data-position=""2""></div></div><div class=""position-wrapper""><div class=""position-box "" data-position=""3""></div></div><div class=""position-wrapper""><div class=""position-box "" data-position=""4""></div></div><div class=""position-wrapper""><div class=""position-box "" data-position=""5""></div></div></div><div class=""finger-diagram-container"">
			<img src=""assets/finger-diagrams/finger-diagram-6pos.png"" alt=""Finger position guide"" class=""finger-diagram"" />
		</div>","d","1","d","1.7163490803009984","0.01709636891849747","true","0","10","10","",""
"","","","","","main","feedback","html-keyboard-response","74","257200","0.0-27.0-0.0-1.0","P_4b6833d547037b3200d8ce381f31811a05aa17f5b5e943638920bb05b69eb0b2","697c608fb23a18f07d093e5b","697c60fa8004176b45d30e72","6","60","1200","12","null","","<div class=""feedback-message""><div class=""feedback-correct"">✓</div></div><div class=""stimulus-container""><div class=""position-wrapper""><div class=""position-box "" data-position=""0""></div></div><div class=""position-wrapper""><div class=""position-box active"" data-position=""1""></div></div><div class=""position-wrapper""><div class=""position-box "" data-position=""2""></div></div><div class=""position-wrapper""><div class=""position-box "" data-position=""3""></div></div><div class=""position-wrapper""><div class=""position-box "" data-position=""4""></div></div><div class=""position-wrapper""><div class=""position-box "" data-position=""5""></div></div></div><div class=""finger-diagram-container"">
			<img src=""assets/finger-diagrams/finger-diagram-6pos.png"" alt=""Finger position guide"" class=""finger-diagram"" />
		</div>","null","","","","","","","","","",""
"","","","","","main","rsi","html-keyboard-response","75","257322","0.0-27.0-1.0","P_4b6833d547037b3200d8ce381f31811a05aa17f5b5e943638920bb05b69eb0b2","697c608fb23a18f07d093e5b","697c60fa8004176b45d30e72","6","60","1200","12","null","","<div class=""feedback-message""></div><div class=""stimulus-container""><div class=""position-wrapper""><div class=""position-box "" data-position=""0""></div></div><div class=""position-wrapper""><div class=""position-box "" data-position=""1""></div></div><div class=""position-wrapper""><div class=""position-box "" data-position=""2""></div></div><div class=""position-wrapper""><div class=""position-box "" data-position=""3""></div></div><div class=""position-wrapper""><div class=""position-box "" data-position=""4""></div></div><div class=""position-wrapper""><div class=""position-box "" data-position=""5""></div></div></div><div class=""finger-diagram-container"">
			<img src=""assets/finger-diagrams/finger-diagram-6pos.png"" alt=""Finger position guide"" class=""finger-diagram"" />
		</div>","null","","","","","","","","","",""
"","","","","","main","stimulus","html-keyboard-response","76","258442","0.0-28.0-0.0-0.0","P_4b6833d547037b3200d8ce381f31811a05aa17f5b5e943638920bb05b69eb0b2","697c608fb23a18f07d093e5b","697c60fa8004176b45d30e72","6","60","1200","12","1117","","<div class=""feedback-message""></div><div class=""stimulus-container""><div class=""position-wrapper""><div class=""position-box "" data-position=""0""></div></div><div class=""position-wrapper""><div class=""position-box "" data-position=""1""></div></div><div class=""position-wrapper""><div class=""position-box "" data-position=""2""></div></div><div class=""position-wrapper""><div class=""position-box "" data-position=""3""></div></div><div class=""position-wrapper""><div class=""position-box active"" data-position=""4""></div></div><div class=""position-wrapper""><div class=""position-box "" data-position=""5""></div></div></div><div class=""finger-diagram-container"">
			<img src=""assets/finger-diagrams/finger-diagram-6pos.png"" alt=""Finger position guide"" class=""finger-diagram"" />
		</div>","k","4","k","1.919781834473742","1.0067602970615734","true","0","11","11","",""
"","","","","","main","feedback","html-keyboard-response","77","258645","0.0-28.0-0.0-1.0","P_4b6833d547037b3200d8ce381f31811a05aa17f5b5e943638920bb05b69eb0b2","697c608fb23a18f07d093e5b","697c60fa8004176b45d30e72","6","60","1200","12","null","","<div class=""feedback-message""><div class=""feedback-correct"">✓</div></div><div class=""stimulus-container""><div class=""position-wrapper""><div class=""position-box "" data-position=""0""></div></div><div class=""position-wrapper""><div class=""position-box "" data-position=""1""></div></div><div class=""position-wrapper""><div class=""position-box "" data-position=""2""></div></div><div class=""position-wrapper""><div class=""position-box "" data-position=""3""></div></div><div class=""position-wrapper""><div class=""position-box active"" data-position=""4""></div></div><div class=""position-wrapper""><div class=""position-box "" data-position=""5""></div></div></div><div class=""finger-diagram-container"">
			<img src=""assets/finger-diagrams/finger-diagram-6pos.png"" alt=""Finger position guide"" class=""finger-diagram"" />
		</div>","null","","","","","","","","","",""
"","","","","","main","rsi","html-keyboard-response","78","258768","0.0-28.0-1.0","P_4b6833d547037b3200d8ce381f31811a05aa17f5b5e943638920bb05b69eb0b2","697c608fb23a18f07d093e5b","697c60fa8004176b45d30e72","6","60","1200","12","null","","<div class=""feedback-message""></div><div class=""stimulus-container""><div class=""position-wrapper""><div class=""position-box "" data-position=""0""></div></div><div class=""position-wrapper""><div class=""position-box "" data-position=""1""></div></div><div class=""position-wrapper""><div class=""position-box "" data-position=""2""></div></div><div class=""position-wrapper""><div class=""position-box "" data-position=""3""></div></div><div class=""position-wrapper""><div class=""position-box "" data-position=""4""></div></div><div class=""position-wrapper""><div class=""position-box "" data-position=""5""></div></div></div><div class=""finger-diagram-container"">
			<img src=""assets/finger-diagrams/finger-diagram-6pos.png"" alt=""Finger position guide"" class=""finger-diagram"" />
		</div>","null","","","","","","","","","",""
"","","","","","main","stimulus","html-keyboard-response","79","259409","0.0-29.0-0.0-0.0","P_4b6833d547037b3200d8ce381f31811a05aa17f5b5e943638920bb05b69eb0b2","697c608fb23a18f07d093e5b","697c60fa8004176b45d30e72","6","60","1200","12","639","","<div class=""feedback-message""></div><div class=""stimulus-container""><div class=""position-wrapper""><div class=""position-box active"" data-position=""0""></div></div><div class=""position-wrapper""><div class=""position-box "" data-position=""1""></div></div><div class=""position-wrapper""><div class=""position-box "" data-position=""2""></div></div><div class=""position-wrapper""><div class=""position-box "" data-position=""3""></div></div><div class=""position-wrapper""><div class=""position-box "" data-position=""4""></div></div><div class=""position-wrapper""><div class=""position-box "" data-position=""5""></div></div></div><div class=""finger-diagram-container"">
			<img src=""assets/finger-diagrams/finger-diagram-6pos.png"" alt=""Finger position guide"" class=""finger-diagram"" />
		</div>","s","0","s","0.6265709654819551","1.4191265827700734","true","0","12","12","",""
"","","","","","main","feedback","html-keyboard-response","80","259612","0.0-29.0-0.0-1.0","P_4b6833d547037b3200d8ce381f31811a05aa17f5b5e943638920bb05b69eb0b2","697c608fb23a18f07d093e5b","697c60fa8004176b45d30e72","6","60","1200","12","null","","<div class=""feedback-message""><div class=""feedback-correct"">✓</div></div><div class=""stimulus-container""><div class=""position-wrapper""><div class=""position-box active"" data-position=""0""></div></div><div class=""position-wrapper""><div class=""position-box "" data-position=""1""></div></div><div class=""position-wrapper""><div class=""position-box "" data-position=""2""></div></div><div class=""position-wrapper""><div class=""position-box "" data-position=""3""></div></div><div class=""position-wrapper""><div class=""position-box "" data-position=""4""></div></div><div class=""position-wrapper""><div class=""position-box "" data-position=""5""></div></div></div><div class=""finger-diagram-container"">
			<img src=""assets/finger-diagrams/finger-diagram-6pos.png"" alt=""Finger position guide"" class=""finger-diagram"" />
		</div>","null","","","","","","","","","",""
"","","","","","main","rsi","html-keyboard-response","81","259735","0.0-29.0-1.0","P_4b6833d547037b3200d8ce381f31811a05aa17f5b5e943638920bb05b69eb0b2","697c608fb23a18f07d093e5b","697c60fa8004176b45d30e72","6","60","1200","12","null","","<div class=""feedback-message""></div><div class=""stimulus-container""><div class=""position-wrapper""><div class=""position-box "" data-position=""0""></div></div><div class=""position-wrapper""><div class=""position-box "" data-position=""1""></div></div><div class=""position-wrapper""><div class=""position-box "" data-position=""2""></div></div><div class=""position-wrapper""><div class=""position-box "" data-position=""3""></div></div><div class=""position-wrapper""><div class=""position-box "" data-position=""4""></div></div><div class=""position-wrapper""><div class=""position-box "" data-position=""5""></div></div></div><div class=""finger-diagram-container"">
			<img src=""assets/finger-diagrams/finger-diagram-6pos.png"" alt=""Finger position guide"" class=""finger-diagram"" />
		</div>","null","","","","","","","","","",""
"","","","","","main","stimulus","html-keyboard-response","82","260428","0.0-30.0-0.0-0.0","P_4b6833d547037b3200d8ce381f31811a05aa17f5b5e943638920bb05b69eb0b2","697c608fb23a18f07d093e5b","697c60fa8004176b45d30e72","6","60","1200","12","690","","<div class=""feedback-message""></div><div class=""stimulus-container""><div class=""position-wrapper""><div class=""position-box "" data-position=""0""></div></div><div class=""position-wrapper""><div class=""position-box "" data-position=""1""></div></div><div class=""position-wrapper""><div class=""position-box active"" data-position=""2""></div></div><div class=""position-wrapper""><div class=""position-box "" data-position=""3""></div></div><div class=""position-wrapper""><div class=""position-box "" data-position=""4""></div></div><div class=""position-wrapper""><div class=""position-box "" data-position=""5""></div></div></div><div class=""finger-diagram-container"">
			<img src=""assets/finger-diagrams/finger-diagram-6pos.png"" alt=""Finger position guide"" class=""finger-diagram"" />
		</div>","f","2","f","0.09237731181353705","0.22743527250800727","true","0","13","13","",""
"","","","","","main","feedback","html-keyboard-response","83","260630","0.0-30.0-0.0-1.0","P_4b6833d547037b3200d8ce381f31811a05aa17f5b5e943638920bb05b69eb0b2","697c608fb23a18f07d093e5b","697c60fa8004176b45d30e72","6","60","1200","12","null","","<div class=""feedback-message""><div class=""feedback-correct"">✓</div></div><div class=""stimulus-container""><div class=""position-wrapper""><div class=""position-box "" data-position=""0""></div></div><div class=""position-wrapper""><div class=""position-box "" data-position=""1""></div></div><div class=""position-wrapper""><div class=""position-box active"" data-position=""2""></div></div><div class=""position-wrapper""><div class=""position-box "" data-position=""3""></div></div><div class=""position-wrapper""><div class=""position-box "" data-position=""4""></div></div><div class=""position-wrapper""><div class=""position-box "" data-position=""5""></div></div></div><div class=""finger-diagram-container"">
			<img src=""assets/finger-diagrams/finger-diagram-6pos.png"" alt=""Finger position guide"" class=""finger-diagram"" />
		</div>","null","","","","","","","","","",""
"","","","","","main","rsi","html-keyboard-response","84","260753","0.0-30.0-1.0","P_4b6833d547037b3200d8ce381f31811a05aa17f5b5e943638920bb05b69eb0b2","697c608fb23a18f07d093e5b","697c60fa8004176b45d30e72","6","60","1200","12","null","","<div class=""feedback-message""></div><div class=""stimulus-container""><div class=""position-wrapper""><div class=""position-box "" data-position=""0""></div></div><div class=""position-wrapper""><div class=""position-box "" data-position=""1""></div></div><div class=""position-wrapper""><div class=""position-box "" data-position=""2""></div></div><div class=""position-wrapper""><div class=""position-box "" data-position=""3""></div></div><div class=""position-wrapper""><div class=""position-box "" data-position=""4""></div></div><div class=""position-wrapper""><div class=""position-box "" data-position=""5""></div></div></div><div class=""finger-diagram-container"">
			<img src=""assets/finger-diagrams/finger-diagram-6pos.png"" alt=""Finger position guide"" class=""finger-diagram"" />
		</div>","null","","","","","","","","","",""
