"success","timeout","failed_images","failed_audio","failed_video","phase","experiment_trial_type","trial_type","trial_index","time_elapsed","internal_node_id","subject_id","study_id","session_id","matrix_size","trials_per_block","total_trials","practice_trials","rt","view_history","stimulus","response","position","correct_key","conditional_entropy","surprisal","correct","block","trial_in_block","overall_trial","question_order","questionnaire_item"
"true","false","[]","[]","[]","preload","preload","preload","0","690","0.0-0.0","P_55a7fed8c8b947bdad8c361969f55e882f976588ef9fa69f4f38b9dd0530cddd","697c608fb23a18f07d093e5b","697c60fb0bc97588c754211b","6","60","1200","12","","","","","","","","","","","","","",""
"true","","","","","fullscreen","fullscreen","fullscreen","1","12423","0.0-1.0","P_55a7fed8c8b947bdad8c361969f55e882f976588ef9fa69f4f38b9dd0530cddd","697c608fb23a18f07d093e5b","697c60fb0bc97588c754211b","6","60","1200","12","10721","","","","","","","","","","","","",""
"","","","","","instructions","instructions","instructions","2","126627","0.0-2.0","P_55a7fed8c8b947bdad8c361969f55e882f976588ef9fa69f4f38b9dd0530cddd","697c608fb23a18f07d093e5b","697c60fb0bc97588c754211b","6","60","1200","12","114202","[{""page_index"":0,""viewing_time"":13189},{""page_index"":1,""viewing_time"":96525},{""page_index"":2,""viewing_time"":4488}]","","","","","","","","","","","",""
"","","","","","","","html-keyboard-response","3","132554","0.0-3.0","P_55a7fed8c8b947bdad8c361969f55e882f976588ef9fa69f4f38b9dd0530cddd","697c608fb23a18f07d093e5b","697c60fb0bc97588c754211b","6","60","1200","12","5924","","
				<div class=""instruction-text"">
					<h2>Practice</h2>
					<p>You wil start with 12 practice trials to get familiar with the task.</p>
					<p><strong>Ready to practice? Please rest your fingers on these keys throughout the task, as demonstrated below:</strong></p>
					<img src=""assets/key-mappings-6pos.gif"" alt=""Key Mapping"" class=""key-mapping-image"" />
					<p style=""text-align: center;"">Press any key to begin the practice trials.</p>
				</div>","j","","","","","","","","","",""
"","","","","","practice","stimulus","html-keyboard-response","4","133359","0.0-4.0-0.0-0.0","P_55a7fed8c8b947bdad8c361969f55e882f976588ef9fa69f4f38b9dd0530cddd","697c608fb23a18f07d093e5b","697c60fb0bc97588c754211b","6","60","1200","12","803","","<div class=""feedback-message""></div><div class=""stimulus-container""><div class=""position-wrapper""><div class=""key-label"">S</div><div class=""position-box active"" data-position=""0""></div></div><div class=""position-wrapper""><div class=""key-label"">D</div><div class=""position-box "" data-position=""1""></div></div><div class=""position-wrapper""><div class=""key-label"">F</div><div class=""position-box "" data-position=""2""></div></div><div class=""position-wrapper""><div class=""key-label"">J</div><div class=""position-box "" data-position=""3""></div></div><div class=""position-wrapper""><div class=""key-label"">K</div><div class=""position-box "" data-position=""4""></div></div><div class=""position-wrapper""><div class=""key-label"">L</div><div class=""position-box "" data-position=""5""></div></div></div><div class=""finger-diagram-container"">
			<img src=""assets/finger-diagrams/finger-diagram-6pos.png"" alt=""Finger position guide"" class=""finger-diagram"" />
		</div>","s","0","s","0.6265709654819551","null","true","","","","",""
"","","","","","practice","feedback","html-keyboard-response","5","133562","0.0-4.0-0.0-1.0","P_55a7fed8c8b947bdad8c361969f55e882f976588ef9fa69f4f38b9dd0530cddd","697c608fb23a18f07d093e5b","697c60fb0bc97588c754211b","6","60","1200","12","null","","<div class=""feedback-message""><div class=""feedback-correct"">✓</div></div><div class=""stimulus-container""><div class=""position-wrapper""><div class=""key-label"">S</div><div class=""position-box active"" data-position=""0""></div></div><div class=""position-wrapper""><div class=""key-label"">D</div><div class=""position-box "" data-position=""1""></div></div><div class=""position-wrapper""><div class=""key-label"">F</div><div class=""position-box "" data-position=""2""></div></div><div class=""position-wrapper""><div class=""key-label"">J</div><div class=""position-box "" data-position=""3""></div></div><div class=""position-wrapper""><div class=""key-label"">K</div><div class=""position-box "" data-position=""4""></div></div><div class=""position-wrapper""><div class=""key-label"">L</div><div class=""position-box "" data-position=""5""></div></div></div><div class=""finger-diagram-container"">
			<img src=""assets/finger-diagrams/finger-diagram-6pos.png"" alt=""Finger position guide"" class=""finger-diagram"" />
		</div>","null","","","","","","","","","",""
"","","","","","practice","rsi","html-keyboard-response","6","133684","0.0-4.0-1.0","P_55a7fed8c8b947bdad8c361969f55e882f976588ef9fa69f4f38b9dd0530cddd","697c608fb23a18f07d093e5b","697c60fb0bc97588c754211b","6","60","1200","12","null","","<div class=""feedback-message""></div><div class=""stimulus-container""><div class=""position-wrapper""><div class=""key-label"">S</div><div class=""position-box "" data-position=""0""></div></div><div class=""position-wrapper""><div class=""key-label"">D</div><div class=""position-box "" data-position=""1""></div></div><div class=""position-wrapper""><div class=""key-label"">F</div><div class=""position-box "" data-position=""2""></div></div><div class=""position-wrapper""><div class=""key-label"">J</div><div class=""position-box "" data-position=""3""></div></div><div class=""position-wrapper""><div class=""key-label"">K</div><div class=""position-box "" data-position=""4""></div></div><div class=""position-wrapper""><div class=""key-label"">L</div><div class=""position-box "" data-position=""5""></div></div></div><div class=""finger-diagram-container"">
			<img src=""assets/finger-diagrams/finger-diagram-6pos.png"" alt=""Finger position guide"" class=""finger-diagram"" />
		</div>","null","","","","","","","","","",""
"","","","","","practice","stimulus","html-keyboard-response","7","134364","0.0-5.0-0.0-0.0","P_55a7fed8c8b947bdad8c361969f55e882f976588ef9fa69f4f38b9dd0530cddd","697c608fb23a18f07d093e5b","697c60fb0bc97588c754211b","6","60","1200","12","678","","<div class=""feedback-message""></div><div class=""stimulus-container""><div class=""position-wrapper""><div class=""key-label"">S</div><div class=""position-box "" data-position=""0""></div></div><div class=""position-wrapper""><div class=""key-label"">D</div><div class=""position-box "" data-position=""1""></div></div><div class=""position-wrapper""><div class=""key-label"">F</div><div class=""position-box active"" data-position=""2""></div></div><div class=""position-wrapper""><div class=""key-label"">J</div><div class=""position-box "" data-position=""3""></div></div><div class=""position-wrapper""><div class=""key-label"">K</div><div class=""position-box "" data-position=""4""></div></div><div class=""position-wrapper""><div class=""key-label"">L</div><div class=""position-box "" data-position=""5""></div></div></div><div class=""finger-diagram-container"">
			<img src=""assets/finger-diagrams/finger-diagram-6pos.png"" alt=""Finger position guide"" class=""finger-diagram"" />
		</div>","d","2","f","1.9197818344737425","35.89771090752385","false","","","","",""
"","","","","","practice","feedback","html-keyboard-response","8","134710","0.0-5.0-0.0-1.0","P_55a7fed8c8b947bdad8c361969f55e882f976588ef9fa69f4f38b9dd0530cddd","697c608fb23a18f07d093e5b","697c60fb0bc97588c754211b","6","60","1200","12","null","","<div class=""feedback-message""><div class=""feedback-error"">✗<br>Try again!</div></div><div class=""stimulus-container""><div class=""position-wrapper""><div class=""key-label"">S</div><div class=""position-box "" data-position=""0""></div></div><div class=""position-wrapper""><div class=""key-label"">D</div><div class=""position-box "" data-position=""1""></div></div><div class=""position-wrapper""><div class=""key-label"">F</div><div class=""position-box active"" data-position=""2""></div></div><div class=""position-wrapper""><div class=""key-label"">J</div><div class=""position-box "" data-position=""3""></div></div><div class=""position-wrapper""><div class=""key-label"">K</div><div class=""position-box "" data-position=""4""></div></div><div class=""position-wrapper""><div class=""key-label"">L</div><div class=""position-box "" data-position=""5""></div></div></div><div class=""finger-diagram-container"">
			<img src=""assets/finger-diagrams/finger-diagram-6pos.png"" alt=""Finger position guide"" class=""finger-diagram"" />
		</div>","null","","","","","","","","","",""
"","","","","","practice","retry","html-keyboard-response","9","135163","0.0-5.0-0.1-0.1","P_55a7fed8c8b947bdad8c361969f55e882f976588ef9fa69f4f38b9dd0530cddd","697c608fb23a18f07d093e5b","697c60fb0bc97588c754211b","6","60","1200","12","452","","<div class=""feedback-message""></div><div class=""stimulus-container""><div class=""position-wrapper""><div class=""key-label"">S</div><div class=""position-box "" data-position=""0""></div></div><div class=""position-wrapper""><div class=""key-label"">D</div><div class=""position-box "" data-position=""1""></div></div><div class=""position-wrapper""><div class=""key-label"">F</div><div class=""position-box active"" data-position=""2""></div></div><div class=""position-wrapper""><div class=""key-label"">J</div><div class=""position-box "" data-position=""3""></div></div><div class=""position-wrapper""><div class=""key-label"">K</div><div class=""position-box "" data-position=""4""></div></div><div class=""position-wrapper""><div class=""key-label"">L</div><div class=""position-box "" data-position=""5""></div></div></div><div class=""finger-diagram-container"">
			<img src=""assets/finger-diagrams/finger-diagram-6pos.png"" alt=""Finger position guide"" class=""finger-diagram"" />
		</div>","f","2","f","1.9197818344737425","35.89771090752385","true","","","","",""
"","","","","","practice","feedback","html-keyboard-response","10","135378","0.0-5.0-0.1-1.1","P_55a7fed8c8b947bdad8c361969f55e882f976588ef9fa69f4f38b9dd0530cddd","697c608fb23a18f07d093e5b","697c60fb0bc97588c754211b","6","60","1200","12","null","","<div class=""feedback-message""><div class=""feedback-correct"">✓</div></div><div class=""stimulus-container""><div class=""position-wrapper""><div class=""key-label"">S</div><div class=""position-box "" data-position=""0""></div></div><div class=""position-wrapper""><div class=""key-label"">D</div><div class=""position-box "" data-position=""1""></div></div><div class=""position-wrapper""><div class=""key-label"">F</div><div class=""position-box active"" data-position=""2""></div></div><div class=""position-wrapper""><div class=""key-label"">J</div><div class=""position-box "" data-position=""3""></div></div><div class=""position-wrapper""><div class=""key-label"">K</div><div class=""position-box "" data-position=""4""></div></div><div class=""position-wrapper""><div class=""key-label"">L</div><div class=""position-box "" data-position=""5""></div></div></div><div class=""finger-diagram-container"">
			<img src=""assets/finger-diagrams/finger-diagram-6pos.png"" alt=""Finger position guide"" class=""finger-diagram"" />
		</div>","null","","","","","","","","","",""
"","","","","","practice","rsi","html-keyboard-response","11","135501","0.0-5.0-1.0","P_55a7fed8c8b947bdad8c361969f55e882f976588ef9fa69f4f38b9dd0530cddd","697c608fb23a18f07d093e5b","697c60fb0bc97588c754211b","6","60","1200","12","null","","<div class=""feedback-message""></div><div class=""stimulus-container""><div class=""position-wrapper""><div class=""key-label"">S</div><div class=""position-box "" data-position=""0""></div></div><div class=""position-wrapper""><div class=""key-label"">D</div><div class=""position-box "" data-position=""1""></div></div><div class=""position-wrapper""><div class=""key-label"">F</div><div class=""position-box "" data-position=""2""></div></div><div class=""position-wrapper""><div class=""key-label"">J</div><div class=""position-box "" data-position=""3""></div></div><div class=""position-wrapper""><div class=""key-label"">K</div><div class=""position-box "" data-position=""4""></div></div><div class=""position-wrapper""><div class=""key-label"">L</div><div class=""position-box "" data-position=""5""></div></div></div><div class=""finger-diagram-container"">
			<img src=""assets/finger-diagrams/finger-diagram-6pos.png"" alt=""Finger position guide"" class=""finger-diagram"" />
		</div>","null","","","","","","","","","",""
"","","","","","practice","stimulus","html-keyboard-response","12","136223","0.0-6.0-0.0-0.0","P_55a7fed8c8b947bdad8c361969f55e882f976588ef9fa69f4f38b9dd0530cddd","697c608fb23a18f07d093e5b","697c60fb0bc97588c754211b","6","60","1200","12","720","","<div class=""feedback-message""></div><div class=""stimulus-container""><div class=""position-wrapper""><div class=""key-label"">S</div><div class=""position-box "" data-position=""0""></div></div><div class=""position-wrapper""><div class=""key-label"">D</div><div class=""position-box "" data-position=""1""></div></div><div class=""position-wrapper""><div class=""key-label"">F</div><div class=""position-box "" data-position=""2""></div></div><div class=""position-wrapper""><div class=""key-label"">J</div><div class=""position-box active"" data-position=""3""></div></div><div class=""position-wrapper""><div class=""key-label"">K</div><div class=""position-box "" data-position=""4""></div></div><div class=""position-wrapper""><div class=""key-label"">L</div><div class=""position-box "" data-position=""5""></div></div></div><div class=""finger-diagram-container"">
			<img src=""assets/finger-diagrams/finger-diagram-6pos.png"" alt=""Finger position guide"" class=""finger-diagram"" />
		</div>","j","3","j","1.7164586615480486","1.9047769601464493","true","","","","",""
"","","","","","practice","feedback","html-keyboard-response","13","136429","0.0-6.0-0.0-1.0","P_55a7fed8c8b947bdad8c361969f55e882f976588ef9fa69f4f38b9dd0530cddd","697c608fb23a18f07d093e5b","697c60fb0bc97588c754211b","6","60","1200","12","null","","<div class=""feedback-message""><div class=""feedback-correct"">✓</div></div><div class=""stimulus-container""><div class=""position-wrapper""><div class=""key-label"">S</div><div class=""position-box "" data-position=""0""></div></div><div class=""position-wrapper""><div class=""key-label"">D</div><div class=""position-box "" data-position=""1""></div></div><div class=""position-wrapper""><div class=""key-label"">F</div><div class=""position-box "" data-position=""2""></div></div><div class=""position-wrapper""><div class=""key-label"">J</div><div class=""position-box active"" data-position=""3""></div></div><div class=""position-wrapper""><div class=""key-label"">K</div><div class=""position-box "" data-position=""4""></div></div><div class=""position-wrapper""><div class=""key-label"">L</div><div class=""position-box "" data-position=""5""></div></div></div><div class=""finger-diagram-container"">
			<img src=""assets/finger-diagrams/finger-diagram-6pos.png"" alt=""Finger position guide"" class=""finger-diagram"" />
		</div>","null","","","","","","","","","",""
"","","","","","practice","rsi","html-keyboard-response","14","136556","0.0-6.0-1.0","P_55a7fed8c8b947bdad8c361969f55e882f976588ef9fa69f4f38b9dd0530cddd","697c608fb23a18f07d093e5b","697c60fb0bc97588c754211b","6","60","1200","12","null","","<div class=""feedback-message""></div><div class=""stimulus-container""><div class=""position-wrapper""><div class=""key-label"">S</div><div class=""position-box "" data-position=""0""></div></div><div class=""position-wrapper""><div class=""key-label"">D</div><div class=""position-box "" data-position=""1""></div></div><div class=""position-wrapper""><div class=""key-label"">F</div><div class=""position-box "" data-position=""2""></div></div><div class=""position-wrapper""><div class=""key-label"">J</div><div class=""position-box "" data-position=""3""></div></div><div class=""position-wrapper""><div class=""key-label"">K</div><div class=""position-box "" data-position=""4""></div></div><div class=""position-wrapper""><div class=""key-label"">L</div><div class=""position-box "" data-position=""5""></div></div></div><div class=""finger-diagram-container"">
			<img src=""assets/finger-diagrams/finger-diagram-6pos.png"" alt=""Finger position guide"" class=""finger-diagram"" />
		</div>","null","","","","","","","","","",""
"","","","","","practice","stimulus","html-keyboard-response","15","137540","0.0-7.0-0.0-0.0","P_55a7fed8c8b947bdad8c361969f55e882f976588ef9fa69f4f38b9dd0530cddd","697c608fb23a18f07d093e5b","697c60fb0bc97588c754211b","6","60","1200","12","983","","<div class=""feedback-message""></div><div class=""stimulus-container""><div class=""position-wrapper""><div class=""key-label"">S</div><div class=""position-box "" data-position=""0""></div></div><div class=""position-wrapper""><div class=""key-label"">D</div><div class=""position-box active"" data-position=""1""></div></div><div class=""position-wrapper""><div class=""key-label"">F</div><div class=""position-box "" data-position=""2""></div></div><div class=""position-wrapper""><div class=""key-label"">J</div><div class=""position-box "" data-position=""3""></div></div><div class=""position-wrapper""><div class=""key-label"">K</div><div class=""position-box "" data-position=""4""></div></div><div class=""position-wrapper""><div class=""key-label"">L</div><div class=""position-box "" data-position=""5""></div></div></div><div class=""finger-diagram-container"">
			<img src=""assets/finger-diagrams/finger-diagram-6pos.png"" alt=""Finger position guide"" class=""finger-diagram"" />
		</div>","d","1","d","1.7163490803009984","null","true","","","","",""
"","","","","","practice","feedback","html-keyboard-response","16","137750","0.0-7.0-0.0-1.0","P_55a7fed8c8b947bdad8c361969f55e882f976588ef9fa69f4f38b9dd0530cddd","697c608fb23a18f07d093e5b","697c60fb0bc97588c754211b","6","60","1200","12","null","","<div class=""feedback-message""><div class=""feedback-correct"">✓</div></div><div class=""stimulus-container""><div class=""position-wrapper""><div class=""key-label"">S</div><div class=""position-box "" data-position=""0""></div></div><div class=""position-wrapper""><div class=""key-label"">D</div><div class=""position-box active"" data-position=""1""></div></div><div class=""position-wrapper""><div class=""key-label"">F</div><div class=""position-box "" data-position=""2""></div></div><div class=""position-wrapper""><div class=""key-label"">J</div><div class=""position-box "" data-position=""3""></div></div><div class=""position-wrapper""><div class=""key-label"">K</div><div class=""position-box "" data-position=""4""></div></div><div class=""position-wrapper""><div class=""key-label"">L</div><div class=""position-box "" data-position=""5""></div></div></div><div class=""finger-diagram-container"">
			<img src=""assets/finger-diagrams/finger-diagram-6pos.png"" alt=""Finger position guide"" class=""finger-diagram"" />
		</div>","null","","","","","","","","","",""
"","","","","","practice","rsi","html-keyboard-response","17","137873","0.0-7.0-1.0","P_55a7fed8c8b947bdad8c361969f55e882f976588ef9fa69f4f38b9dd0530cddd","697c608fb23a18f07d093e5b","697c60fb0bc97588c754211b","6","60","1200","12","null","","<div class=""feedback-message""></div><div class=""stimulus-container""><div class=""position-wrapper""><div class=""key-label"">S</div><div class=""position-box "" data-position=""0""></div></div><div class=""position-wrapper""><div class=""key-label"">D</div><div class=""position-box "" data-position=""1""></div></div><div class=""position-wrapper""><div class=""key-label"">F</div><div class=""position-box "" data-position=""2""></div></div><div class=""position-wrapper""><div class=""key-label"">J</div><div class=""position-box "" data-position=""3""></div></div><div class=""position-wrapper""><div class=""key-label"">K</div><div class=""position-box "" data-position=""4""></div></div><div class=""position-wrapper""><div class=""key-label"">L</div><div class=""position-box "" data-position=""5""></div></div></div><div class=""finger-diagram-container"">
			<img src=""assets/finger-diagrams/finger-diagram-6pos.png"" alt=""Finger position guide"" class=""finger-diagram"" />
		</div>","null","","","","","","","","","",""
"","","","","","practice","stimulus","html-keyboard-response","18","138386","0.0-8.0-0.0-0.0","P_55a7fed8c8b947bdad8c361969f55e882f976588ef9fa69f4f38b9dd0530cddd","697c608fb23a18f07d093e5b","697c60fb0bc97588c754211b","6","60","1200","12","511","","<div class=""feedback-message""></div><div class=""stimulus-container""><div class=""position-wrapper""><div class=""key-label"">S</div><div class=""position-box "" data-position=""0""></div></div><div class=""position-wrapper""><div class=""key-label"">D</div><div class=""position-box "" data-position=""1""></div></div><div class=""position-wrapper""><div class=""key-label"">F</div><div class=""position-box "" data-position=""2""></div></div><div class=""position-wrapper""><div class=""key-label"">J</div><div class=""position-box "" data-position=""3""></div></div><div class=""position-wrapper""><div class=""key-label"">K</div><div class=""position-box "" data-position=""4""></div></div><div class=""position-wrapper""><div class=""key-label"">L</div><div class=""position-box active"" data-position=""5""></div></div></div><div class=""finger-diagram-container"">
			<img src=""assets/finger-diagrams/finger-diagram-6pos.png"" alt=""Finger position guide"" class=""finger-diagram"" />
		</div>","l","5","l","1.6016287006430237","2.2528020787541636","true","","","","",""
"","","","","","practice","feedback","html-keyboard-response","19","138592","0.0-8.0-0.0-1.0","P_55a7fed8c8b947bdad8c361969f55e882f976588ef9fa69f4f38b9dd0530cddd","697c608fb23a18f07d093e5b","697c60fb0bc97588c754211b","6","60","1200","12","null","","<div class=""feedback-message""><div class=""feedback-correct"">✓</div></div><div class=""stimulus-container""><div class=""position-wrapper""><div class=""key-label"">S</div><div class=""position-box "" data-position=""0""></div></div><div class=""position-wrapper""><div class=""key-label"">D</div><div class=""position-box "" data-position=""1""></div></div><div class=""position-wrapper""><div class=""key-label"">F</div><div class=""position-box "" data-position=""2""></div></div><div class=""position-wrapper""><div class=""key-label"">J</div><div class=""position-box "" data-position=""3""></div></div><div class=""position-wrapper""><div class=""key-label"">K</div><div class=""position-box "" data-position=""4""></div></div><div class=""position-wrapper""><div class=""key-label"">L</div><div class=""position-box active"" data-position=""5""></div></div></div><div class=""finger-diagram-container"">
			<img src=""assets/finger-diagrams/finger-diagram-6pos.png"" alt=""Finger position guide"" class=""finger-diagram"" />
		</div>","null","","","","","","","","","",""
"","","","","","practice","rsi","html-keyboard-response","20","138731","0.0-8.0-1.0","P_55a7fed8c8b947bdad8c361969f55e882f976588ef9fa69f4f38b9dd0530cddd","697c608fb23a18f07d093e5b","697c60fb0bc97588c754211b","6","60","1200","12","null","","<div class=""feedback-message""></div><div class=""stimulus-container""><div class=""position-wrapper""><div class=""key-label"">S</div><div class=""position-box "" data-position=""0""></div></div><div class=""position-wrapper""><div class=""key-label"">D</div><div class=""position-box "" data-position=""1""></div></div><div class=""position-wrapper""><div class=""key-label"">F</div><div class=""position-box "" data-position=""2""></div></div><div class=""position-wrapper""><div class=""key-label"">J</div><div class=""position-box "" data-position=""3""></div></div><div class=""position-wrapper""><div class=""key-label"">K</div><div class=""position-box "" data-position=""4""></div></div><div class=""position-wrapper""><div class=""key-label"">L</div><div class=""position-box "" data-position=""5""></div></div></div><div class=""finger-diagram-container"">
			<img src=""assets/finger-diagrams/finger-diagram-6pos.png"" alt=""Finger position guide"" class=""finger-diagram"" />
		</div>","null","","","","","","","","","",""
"","","","","","practice","stimulus","html-keyboard-response","21","139328","0.0-9.0-0.0-0.0","P_55a7fed8c8b947bdad8c361969f55e882f976588ef9fa69f4f38b9dd0530cddd","697c608fb23a18f07d093e5b","697c60fb0bc97588c754211b","6","60","1200","12","594","","<div class=""feedback-message""></div><div class=""stimulus-container""><div class=""position-wrapper""><div class=""key-label"">S</div><div class=""position-box "" data-position=""0""></div></div><div class=""position-wrapper""><div class=""key-label"">D</div><div class=""position-box "" data-position=""1""></div></div><div class=""position-wrapper""><div class=""key-label"">F</div><div class=""position-box "" data-position=""2""></div></div><div class=""position-wrapper""><div class=""key-label"">J</div><div class=""position-box "" data-position=""3""></div></div><div class=""position-wrapper""><div class=""key-label"">K</div><div class=""position-box active"" data-position=""4""></div></div><div class=""position-wrapper""><div class=""key-label"">L</div><div class=""position-box "" data-position=""5""></div></div></div><div class=""finger-diagram-container"">
			<img src=""assets/finger-diagrams/finger-diagram-6pos.png"" alt=""Finger position guide"" class=""finger-diagram"" />
		</div>","k","4","k","0.09237731181353705","36.016985194271136","true","","","","",""
"","","","","","practice","feedback","html-keyboard-response","22","139533","0.0-9.0-0.0-1.0","P_55a7fed8c8b947bdad8c361969f55e882f976588ef9fa69f4f38b9dd0530cddd","697c608fb23a18f07d093e5b","697c60fb0bc97588c754211b","6","60","1200","12","null","","<div class=""feedback-message""><div class=""feedback-correct"">✓</div></div><div class=""stimulus-container""><div class=""position-wrapper""><div class=""key-label"">S</div><div class=""position-box "" data-position=""0""></div></div><div class=""position-wrapper""><div class=""key-label"">D</div><div class=""position-box "" data-position=""1""></div></div><div class=""position-wrapper""><div class=""key-label"">F</div><div class=""position-box "" data-position=""2""></div></div><div class=""position-wrapper""><div class=""key-label"">J</div><div class=""position-box "" data-position=""3""></div></div><div class=""position-wrapper""><div class=""key-label"">K</div><div class=""position-box active"" data-position=""4""></div></div><div class=""position-wrapper""><div class=""key-label"">L</div><div class=""position-box "" data-position=""5""></div></div></div><div class=""finger-diagram-container"">
			<img src=""assets/finger-diagrams/finger-diagram-6pos.png"" alt=""Finger position guide"" class=""finger-diagram"" />
		</div>","null","","","","","","","","","",""
"","","","","","practice","rsi","html-keyboard-response","23","139665","0.0-9.0-1.0","P_55a7fed8c8b947bdad8c361969f55e882f976588ef9fa69f4f38b9dd0530cddd","697c608fb23a18f07d093e5b","697c60fb0bc97588c754211b","6","60","1200","12","null","","<div class=""feedback-message""></div><div class=""stimulus-container""><div class=""position-wrapper""><div class=""key-label"">S</div><div class=""position-box "" data-position=""0""></div></div><div class=""position-wrapper""><div class=""key-label"">D</div><div class=""position-box "" data-position=""1""></div></div><div class=""position-wrapper""><div class=""key-label"">F</div><div class=""position-box "" data-position=""2""></div></div><div class=""position-wrapper""><div class=""key-label"">J</div><div class=""position-box "" data-position=""3""></div></div><div class=""position-wrapper""><div class=""key-label"">K</div><div class=""position-box "" data-position=""4""></div></div><div class=""position-wrapper""><div class=""key-label"">L</div><div class=""position-box "" data-position=""5""></div></div></div><div class=""finger-diagram-container"">
			<img src=""assets/finger-diagrams/finger-diagram-6pos.png"" alt=""Finger position guide"" class=""finger-diagram"" />
		</div>","null","","","","","","","","","",""
"","","","","","practice","stimulus","html-keyboard-response","24","140183","0.0-10.0-0.0-0.0","P_55a7fed8c8b947bdad8c361969f55e882f976588ef9fa69f4f38b9dd0530cddd","697c608fb23a18f07d093e5b","697c60fb0bc97588c754211b","6","60","1200","12","515","","<div class=""feedback-message""></div><div class=""stimulus-container""><div class=""position-wrapper""><div class=""key-label"">S</div><div class=""position-box "" data-position=""0""></div></div><div class=""position-wrapper""><div class=""key-label"">D</div><div class=""position-box "" data-position=""1""></div></div><div class=""position-wrapper""><div class=""key-label"">F</div><div class=""position-box "" data-position=""2""></div></div><div class=""position-wrapper""><div class=""key-label"">J</div><div class=""position-box "" data-position=""3""></div></div><div class=""position-wrapper""><div class=""key-label"">K</div><div class=""position-box "" data-position=""4""></div></div><div class=""position-wrapper""><div class=""key-label"">L</div><div class=""position-box active"" data-position=""5""></div></div></div><div class=""finger-diagram-container"">
			<img src=""assets/finger-diagrams/finger-diagram-6pos.png"" alt=""Finger position guide"" class=""finger-diagram"" />
		</div>","l","5","l","1.6016287006430237","6.407472371591219","true","","","","",""
"","","","","","practice","feedback","html-keyboard-response","25","140395","0.0-10.0-0.0-1.0","P_55a7fed8c8b947bdad8c361969f55e882f976588ef9fa69f4f38b9dd0530cddd","697c608fb23a18f07d093e5b","697c60fb0bc97588c754211b","6","60","1200","12","null","","<div class=""feedback-message""><div class=""feedback-correct"">✓</div></div><div class=""stimulus-container""><div class=""position-wrapper""><div class=""key-label"">S</div><div class=""position-box "" data-position=""0""></div></div><div class=""position-wrapper""><div class=""key-label"">D</div><div class=""position-box "" data-position=""1""></div></div><div class=""position-wrapper""><div class=""key-label"">F</div><div class=""position-box "" data-position=""2""></div></div><div class=""position-wrapper""><div class=""key-label"">J</div><div class=""position-box "" data-position=""3""></div></div><div class=""position-wrapper""><div class=""key-label"">K</div><div class=""position-box "" data-position=""4""></div></div><div class=""position-wrapper""><div class=""key-label"">L</div><div class=""position-box active"" data-position=""5""></div></div></div><div class=""finger-diagram-container"">
			<img src=""assets/finger-diagrams/finger-diagram-6pos.png"" alt=""Finger position guide"" class=""finger-diagram"" />
		</div>","null","","","","","","","","","",""
"","","","","","practice","rsi","html-keyboard-response","26","140524","0.0-10.0-1.0","P_55a7fed8c8b947bdad8c361969f55e882f976588ef9fa69f4f38b9dd0530cddd","697c608fb23a18f07d093e5b","697c60fb0bc97588c754211b","6","60","1200","12","null","","<div class=""feedback-message""></div><div class=""stimulus-container""><div class=""position-wrapper""><div class=""key-label"">S</div><div class=""position-box "" data-position=""0""></div></div><div class=""position-wrapper""><div class=""key-label"">D</div><div class=""position-box "" data-position=""1""></div></div><div class=""position-wrapper""><div class=""key-label"">F</div><div class=""position-box "" data-position=""2""></div></div><div class=""position-wrapper""><div class=""key-label"">J</div><div class=""position-box "" data-position=""3""></div></div><div class=""position-wrapper""><div class=""key-label"">K</div><div class=""position-box "" data-position=""4""></div></div><div class=""position-wrapper""><div class=""key-label"">L</div><div class=""position-box "" data-position=""5""></div></div></div><div class=""finger-diagram-container"">
			<img src=""assets/finger-diagrams/finger-diagram-6pos.png"" alt=""Finger position guide"" class=""finger-diagram"" />
		</div>","null","","","","","","","","","",""
"","","","","","practice","stimulus","html-keyboard-response","27","141393","0.0-11.0-0.0-0.0","P_55a7fed8c8b947bdad8c361969f55e882f976588ef9fa69f4f38b9dd0530cddd","697c608fb23a18f07d093e5b","697c60fb0bc97588c754211b","6","60","1200","12","866","","<div class=""feedback-message""></div><div class=""stimulus-container""><div class=""position-wrapper""><div class=""key-label"">S</div><div class=""position-box "" data-position=""0""></div></div><div class=""position-wrapper""><div class=""key-label"">D</div><div class=""position-box "" data-position=""1""></div></div><div class=""position-wrapper""><div class=""key-label"">F</div><div class=""position-box active"" data-position=""2""></div></div><div class=""position-wrapper""><div class=""key-label"">J</div><div class=""position-box "" data-position=""3""></div></div><div class=""position-wrapper""><div class=""key-label"">K</div><div class=""position-box "" data-position=""4""></div></div><div class=""position-wrapper""><div class=""key-label"">L</div><div class=""position-box "" data-position=""5""></div></div></div><div class=""finger-diagram-container"">
			<img src=""assets/finger-diagrams/finger-diagram-6pos.png"" alt=""Finger position guide"" class=""finger-diagram"" />
		</div>","f","2","f","1.9197818344737425","7.7144602909047615","true","","","","",""
"","","","","","practice","feedback","html-keyboard-response","28","141599","0.0-11.0-0.0-1.0","P_55a7fed8c8b947bdad8c361969f55e882f976588ef9fa69f4f38b9dd0530cddd","697c608fb23a18f07d093e5b","697c60fb0bc97588c754211b","6","60","1200","12","null","","<div class=""feedback-message""><div class=""feedback-correct"">✓</div></div><div class=""stimulus-container""><div class=""position-wrapper""><div class=""key-label"">S</div><div class=""position-box "" data-position=""0""></div></div><div class=""position-wrapper""><div class=""key-label"">D</div><div class=""position-box "" data-position=""1""></div></div><div class=""position-wrapper""><div class=""key-label"">F</div><div class=""position-box active"" data-position=""2""></div></div><div class=""position-wrapper""><div class=""key-label"">J</div><div class=""position-box "" data-position=""3""></div></div><div class=""position-wrapper""><div class=""key-label"">K</div><div class=""position-box "" data-position=""4""></div></div><div class=""position-wrapper""><div class=""key-label"">L</div><div class=""position-box "" data-position=""5""></div></div></div><div class=""finger-diagram-container"">
			<img src=""assets/finger-diagrams/finger-diagram-6pos.png"" alt=""Finger position guide"" class=""finger-diagram"" />
		</div>","null","","","","","","","","","",""
"","","","","","practice","rsi","html-keyboard-response","29","141727","0.0-11.0-1.0","P_55a7fed8c8b947bdad8c361969f55e882f976588ef9fa69f4f38b9dd0530cddd","697c608fb23a18f07d093e5b","697c60fb0bc97588c754211b","6","60","1200","12","null","","<div class=""feedback-message""></div><div class=""stimulus-container""><div class=""position-wrapper""><div class=""key-label"">S</div><div class=""position-box "" data-position=""0""></div></div><div class=""position-wrapper""><div class=""key-label"">D</div><div class=""position-box "" data-position=""1""></div></div><div class=""position-wrapper""><div class=""key-label"">F</div><div class=""position-box "" data-position=""2""></div></div><div class=""position-wrapper""><div class=""key-label"">J</div><div class=""position-box "" data-position=""3""></div></div><div class=""position-wrapper""><div class=""key-label"">K</div><div class=""position-box "" data-position=""4""></div></div><div class=""position-wrapper""><div class=""key-label"">L</div><div class=""position-box "" data-position=""5""></div></div></div><div class=""finger-diagram-container"">
			<img src=""assets/finger-diagrams/finger-diagram-6pos.png"" alt=""Finger position guide"" class=""finger-diagram"" />
		</div>","null","","","","","","","","","",""
"","","","","","practice","stimulus","html-keyboard-response","30","142365","0.0-12.0-0.0-0.0","P_55a7fed8c8b947bdad8c361969f55e882f976588ef9fa69f4f38b9dd0530cddd","697c608fb23a18f07d093e5b","697c60fb0bc97588c754211b","6","60","1200","12","637","","<div class=""feedback-message""></div><div class=""stimulus-container""><div class=""position-wrapper""><div class=""key-label"">S</div><div class=""position-box "" data-position=""0""></div></div><div class=""position-wrapper""><div class=""key-label"">D</div><div class=""position-box active"" data-position=""1""></div></div><div class=""position-wrapper""><div class=""key-label"">F</div><div class=""position-box "" data-position=""2""></div></div><div class=""position-wrapper""><div class=""key-label"">J</div><div class=""position-box "" data-position=""3""></div></div><div class=""position-wrapper""><div class=""key-label"">K</div><div class=""position-box "" data-position=""4""></div></div><div class=""position-wrapper""><div class=""key-label"">L</div><div class=""position-box "" data-position=""5""></div></div></div><div class=""finger-diagram-container"">
			<img src=""assets/finger-diagrams/finger-diagram-6pos.png"" alt=""Finger position guide"" class=""finger-diagram"" />
		</div>","d","1","d","1.7163490803009984","null","true","","","","",""
"","","","","","practice","feedback","html-keyboard-response","31","142569","0.0-12.0-0.0-1.0","P_55a7fed8c8b947bdad8c361969f55e882f976588ef9fa69f4f38b9dd0530cddd","697c608fb23a18f07d093e5b","697c60fb0bc97588c754211b","6","60","1200","12","null","","<div class=""feedback-message""><div class=""feedback-correct"">✓</div></div><div class=""stimulus-container""><div class=""position-wrapper""><div class=""key-label"">S</div><div class=""position-box "" data-position=""0""></div></div><div class=""position-wrapper""><div class=""key-label"">D</div><div class=""position-box active"" data-position=""1""></div></div><div class=""position-wrapper""><div class=""key-label"">F</div><div class=""position-box "" data-position=""2""></div></div><div class=""position-wrapper""><div class=""key-label"">J</div><div class=""position-box "" data-position=""3""></div></div><div class=""position-wrapper""><div class=""key-label"">K</div><div class=""position-box "" data-position=""4""></div></div><div class=""position-wrapper""><div class=""key-label"">L</div><div class=""position-box "" data-position=""5""></div></div></div><div class=""finger-diagram-container"">
			<img src=""assets/finger-diagrams/finger-diagram-6pos.png"" alt=""Finger position guide"" class=""finger-diagram"" />
		</div>","null","","","","","","","","","",""
"","","","","","practice","rsi","html-keyboard-response","32","142695","0.0-12.0-1.0","P_55a7fed8c8b947bdad8c361969f55e882f976588ef9fa69f4f38b9dd0530cddd","697c608fb23a18f07d093e5b","697c60fb0bc97588c754211b","6","60","1200","12","null","","<div class=""feedback-message""></div><div class=""stimulus-container""><div class=""position-wrapper""><div class=""key-label"">S</div><div class=""position-box "" data-position=""0""></div></div><div class=""position-wrapper""><div class=""key-label"">D</div><div class=""position-box "" data-position=""1""></div></div><div class=""position-wrapper""><div class=""key-label"">F</div><div class=""position-box "" data-position=""2""></div></div><div class=""position-wrapper""><div class=""key-label"">J</div><div class=""position-box "" data-position=""3""></div></div><div class=""position-wrapper""><div class=""key-label"">K</div><div class=""position-box "" data-position=""4""></div></div><div class=""position-wrapper""><div class=""key-label"">L</div><div class=""position-box "" data-position=""5""></div></div></div><div class=""finger-diagram-container"">
			<img src=""assets/finger-diagrams/finger-diagram-6pos.png"" alt=""Finger position guide"" class=""finger-diagram"" />
		</div>","null","","","","","","","","","",""
"","","","","","practice","stimulus","html-keyboard-response","33","143462","0.0-13.0-0.0-0.0","P_55a7fed8c8b947bdad8c361969f55e882f976588ef9fa69f4f38b9dd0530cddd","697c608fb23a18f07d093e5b","697c60fb0bc97588c754211b","6","60","1200","12","766","","<div class=""feedback-message""></div><div class=""stimulus-container""><div class=""position-wrapper""><div class=""key-label"">S</div><div class=""position-box "" data-position=""0""></div></div><div class=""position-wrapper""><div class=""key-label"">D</div><div class=""position-box "" data-position=""1""></div></div><div class=""position-wrapper""><div class=""key-label"">F</div><div class=""position-box "" data-position=""2""></div></div><div class=""position-wrapper""><div class=""key-label"">J</div><div class=""position-box active"" data-position=""3""></div></div><div class=""position-wrapper""><div class=""key-label"">K</div><div class=""position-box "" data-position=""4""></div></div><div class=""position-wrapper""><div class=""key-label"">L</div><div class=""position-box "" data-position=""5""></div></div></div><div class=""finger-diagram-container"">
			<img src=""assets/finger-diagrams/finger-diagram-6pos.png"" alt=""Finger position guide"" class=""finger-diagram"" />
		</div>","j","3","j","1.7164586615480486","2.137181670080976","true","","","","",""
"","","","","","practice","feedback","html-keyboard-response","34","143665","0.0-13.0-0.0-1.0","P_55a7fed8c8b947bdad8c361969f55e882f976588ef9fa69f4f38b9dd0530cddd","697c608fb23a18f07d093e5b","697c60fb0bc97588c754211b","6","60","1200","12","null","","<div class=""feedback-message""><div class=""feedback-correct"">✓</div></div><div class=""stimulus-container""><div class=""position-wrapper""><div class=""key-label"">S</div><div class=""position-box "" data-position=""0""></div></div><div class=""position-wrapper""><div class=""key-label"">D</div><div class=""position-box "" data-position=""1""></div></div><div class=""position-wrapper""><div class=""key-label"">F</div><div class=""position-box "" data-position=""2""></div></div><div class=""position-wrapper""><div class=""key-label"">J</div><div class=""position-box active"" data-position=""3""></div></div><div class=""position-wrapper""><div class=""key-label"">K</div><div class=""position-box "" data-position=""4""></div></div><div class=""position-wrapper""><div class=""key-label"">L</div><div class=""position-box "" data-position=""5""></div></div></div><div class=""finger-diagram-container"">
			<img src=""assets/finger-diagrams/finger-diagram-6pos.png"" alt=""Finger position guide"" class=""finger-diagram"" />
		</div>","null","","","","","","","","","",""
"","","","","","practice","rsi","html-keyboard-response","35","143791","0.0-13.0-1.0","P_55a7fed8c8b947bdad8c361969f55e882f976588ef9fa69f4f38b9dd0530cddd","697c608fb23a18f07d093e5b","697c60fb0bc97588c754211b","6","60","1200","12","null","","<div class=""feedback-message""></div><div class=""stimulus-container""><div class=""position-wrapper""><div class=""key-label"">S</div><div class=""position-box "" data-position=""0""></div></div><div class=""position-wrapper""><div class=""key-label"">D</div><div class=""position-box "" data-position=""1""></div></div><div class=""position-wrapper""><div class=""key-label"">F</div><div class=""position-box "" data-position=""2""></div></div><div class=""position-wrapper""><div class=""key-label"">J</div><div class=""position-box "" data-position=""3""></div></div><div class=""position-wrapper""><div class=""key-label"">K</div><div class=""position-box "" data-position=""4""></div></div><div class=""position-wrapper""><div class=""key-label"">L</div><div class=""position-box "" data-position=""5""></div></div></div><div class=""finger-diagram-container"">
			<img src=""assets/finger-diagrams/finger-diagram-6pos.png"" alt=""Finger position guide"" class=""finger-diagram"" />
		</div>","null","","","","","","","","","",""
"","","","","","practice","stimulus","html-keyboard-response","36","144215","0.0-14.0-0.0-0.0","P_55a7fed8c8b947bdad8c361969f55e882f976588ef9fa69f4f38b9dd0530cddd","697c608fb23a18f07d093e5b","697c60fb0bc97588c754211b","6","60","1200","12","423","","<div class=""feedback-message""></div><div class=""stimulus-container""><div class=""position-wrapper""><div class=""key-label"">S</div><div class=""position-box "" data-position=""0""></div></div><div class=""position-wrapper""><div class=""key-label"">D</div><div class=""position-box "" data-position=""1""></div></div><div class=""position-wrapper""><div class=""key-label"">F</div><div class=""position-box "" data-position=""2""></div></div><div class=""position-wrapper""><div class=""key-label"">J</div><div class=""position-box "" data-position=""3""></div></div><div class=""position-wrapper""><div class=""key-label"">K</div><div class=""position-box active"" data-position=""4""></div></div><div class=""position-wrapper""><div class=""key-label"">L</div><div class=""position-box "" data-position=""5""></div></div></div><div class=""finger-diagram-container"">
			<img src=""assets/finger-diagrams/finger-diagram-6pos.png"" alt=""Finger position guide"" class=""finger-diagram"" />
		</div>","k","4","k","0.09237731181353705","36.01618095411356","true","","","","",""
"","","","","","practice","feedback","html-keyboard-response","37","144431","0.0-14.0-0.0-1.0","P_55a7fed8c8b947bdad8c361969f55e882f976588ef9fa69f4f38b9dd0530cddd","697c608fb23a18f07d093e5b","697c60fb0bc97588c754211b","6","60","1200","12","null","","<div class=""feedback-message""><div class=""feedback-correct"">✓</div></div><div class=""stimulus-container""><div class=""position-wrapper""><div class=""key-label"">S</div><div class=""position-box "" data-position=""0""></div></div><div class=""position-wrapper""><div class=""key-label"">D</div><div class=""position-box "" data-position=""1""></div></div><div class=""position-wrapper""><div class=""key-label"">F</div><div class=""position-box "" data-position=""2""></div></div><div class=""position-wrapper""><div class=""key-label"">J</div><div class=""position-box "" data-position=""3""></div></div><div class=""position-wrapper""><div class=""key-label"">K</div><div class=""position-box active"" data-position=""4""></div></div><div class=""position-wrapper""><div class=""key-label"">L</div><div class=""position-box "" data-position=""5""></div></div></div><div class=""finger-diagram-container"">
			<img src=""assets/finger-diagrams/finger-diagram-6pos.png"" alt=""Finger position guide"" class=""finger-diagram"" />
		</div>","null","","","","","","","","","",""
"","","","","","practice","rsi","html-keyboard-response","38","144567","0.0-14.0-1.0","P_55a7fed8c8b947bdad8c361969f55e882f976588ef9fa69f4f38b9dd0530cddd","697c608fb23a18f07d093e5b","697c60fb0bc97588c754211b","6","60","1200","12","null","","<div class=""feedback-message""></div><div class=""stimulus-container""><div class=""position-wrapper""><div class=""key-label"">S</div><div class=""position-box "" data-position=""0""></div></div><div class=""position-wrapper""><div class=""key-label"">D</div><div class=""position-box "" data-position=""1""></div></div><div class=""position-wrapper""><div class=""key-label"">F</div><div class=""position-box "" data-position=""2""></div></div><div class=""position-wrapper""><div class=""key-label"">J</div><div class=""position-box "" data-position=""3""></div></div><div class=""position-wrapper""><div class=""key-label"">K</div><div class=""position-box "" data-position=""4""></div></div><div class=""position-wrapper""><div class=""key-label"">L</div><div class=""position-box "" data-position=""5""></div></div></div><div class=""finger-diagram-container"">
			<img src=""assets/finger-diagrams/finger-diagram-6pos.png"" alt=""Finger position guide"" class=""finger-diagram"" />
		</div>","null","","","","","","","","","",""
"","","","","","practice","stimulus","html-keyboard-response","39","145082","0.0-15.0-0.0-0.0","P_55a7fed8c8b947bdad8c361969f55e882f976588ef9fa69f4f38b9dd0530cddd","697c608fb23a18f07d093e5b","697c60fb0bc97588c754211b","6","60","1200","12","514","","<div class=""feedback-message""></div><div class=""stimulus-container""><div class=""position-wrapper""><div class=""key-label"">S</div><div class=""position-box active"" data-position=""0""></div></div><div class=""position-wrapper""><div class=""key-label"">D</div><div class=""position-box "" data-position=""1""></div></div><div class=""position-wrapper""><div class=""key-label"">F</div><div class=""position-box "" data-position=""2""></div></div><div class=""position-wrapper""><div class=""key-label"">J</div><div class=""position-box "" data-position=""3""></div></div><div class=""position-wrapper""><div class=""key-label"">K</div><div class=""position-box "" data-position=""4""></div></div><div class=""position-wrapper""><div class=""key-label"">L</div><div class=""position-box "" data-position=""5""></div></div></div><div class=""finger-diagram-container"">
			<img src=""assets/finger-diagrams/finger-diagram-6pos.png"" alt=""Finger position guide"" class=""finger-diagram"" />
		</div>","s","0","s","0.6265709654819551","33.97916644839635","true","","","","",""
"","","","","","practice","feedback","html-keyboard-response","40","145284","0.0-15.0-0.0-1.0","P_55a7fed8c8b947bdad8c361969f55e882f976588ef9fa69f4f38b9dd0530cddd","697c608fb23a18f07d093e5b","697c60fb0bc97588c754211b","6","60","1200","12","null","","<div class=""feedback-message""><div class=""feedback-correct"">✓</div></div><div class=""stimulus-container""><div class=""position-wrapper""><div class=""key-label"">S</div><div class=""position-box active"" data-position=""0""></div></div><div class=""position-wrapper""><div class=""key-label"">D</div><div class=""position-box "" data-position=""1""></div></div><div class=""position-wrapper""><div class=""key-label"">F</div><div class=""position-box "" data-position=""2""></div></div><div class=""position-wrapper""><div class=""key-label"">J</div><div class=""position-box "" data-position=""3""></div></div><div class=""position-wrapper""><div class=""key-label"">K</div><div class=""position-box "" data-position=""4""></div></div><div class=""position-wrapper""><div class=""key-label"">L</div><div class=""position-box "" data-position=""5""></div></div></div><div class=""finger-diagram-container"">
			<img src=""assets/finger-diagrams/finger-diagram-6pos.png"" alt=""Finger position guide"" class=""finger-diagram"" />
		</div>","null","","","","","","","","","",""
"","","","","","practice","rsi","html-keyboard-response","41","145411","0.0-15.0-1.0","P_55a7fed8c8b947bdad8c361969f55e882f976588ef9fa69f4f38b9dd0530cddd","697c608fb23a18f07d093e5b","697c60fb0bc97588c754211b","6","60","1200","12","null","","<div class=""feedback-message""></div><div class=""stimulus-container""><div class=""position-wrapper""><div class=""key-label"">S</div><div class=""position-box "" data-position=""0""></div></div><div class=""position-wrapper""><div class=""key-label"">D</div><div class=""position-box "" data-position=""1""></div></div><div class=""position-wrapper""><div class=""key-label"">F</div><div class=""position-box "" data-position=""2""></div></div><div class=""position-wrapper""><div class=""key-label"">J</div><div class=""position-box "" data-position=""3""></div></div><div class=""position-wrapper""><div class=""key-label"">K</div><div class=""position-box "" data-position=""4""></div></div><div class=""position-wrapper""><div class=""key-label"">L</div><div class=""position-box "" data-position=""5""></div></div></div><div class=""finger-diagram-container"">
			<img src=""assets/finger-diagrams/finger-diagram-6pos.png"" alt=""Finger position guide"" class=""finger-diagram"" />
		</div>","null","","","","","","","","","",""
"","","","","","practice","practice_end","html-keyboard-response","42","151490","0.0-16.0","P_55a7fed8c8b947bdad8c361969f55e882f976588ef9fa69f4f38b9dd0530cddd","697c608fb23a18f07d093e5b","697c60fb0bc97588c754211b","6","60","1200","12","6076","","
                <div class=""instruction-text"">
                    <h2>Practice Complete!</h2>
                    <p>You got 11 out of 12 trials correct.</p>
                    <p>Remember: Respond as quickly and accurately as possible.</p>
					<p>Now, you will complete 20 blocks of 60 trials.</p>
                    <p>Between blocks, you will get a break to rest.</p>
                    <p>The entire task takes about 26 minutes.</p>
                    <p><strong>The main task will now begin. Press the spacebar to start.</strong></p>
                </div>
            "," ","","","","","","","","","",""
"","","","","","main","stimulus","html-keyboard-response","43","152223","0.0-17.0-0.0-0.0","P_55a7fed8c8b947bdad8c361969f55e882f976588ef9fa69f4f38b9dd0530cddd","697c608fb23a18f07d093e5b","697c60fb0bc97588c754211b","6","60","1200","12","732","","<div class=""feedback-message""></div><div class=""stimulus-container""><div class=""position-wrapper""><div class=""position-box "" data-position=""0""></div></div><div class=""position-wrapper""><div class=""position-box "" data-position=""1""></div></div><div class=""position-wrapper""><div class=""position-box "" data-position=""2""></div></div><div class=""position-wrapper""><div class=""position-box active"" data-position=""3""></div></div><div class=""position-wrapper""><div class=""position-box "" data-position=""4""></div></div><div class=""position-wrapper""><div class=""position-box "" data-position=""5""></div></div></div><div class=""finger-diagram-container"">
			<img src=""assets/finger-diagrams/finger-diagram-6pos.png"" alt=""Finger position guide"" class=""finger-diagram"" />
		</div>","j","3","j","1.7164586615480486","null","true","0","0","0","",""
"","","","","","main","feedback","html-keyboard-response","44","152429","0.0-17.0-0.0-1.0","P_55a7fed8c8b947bdad8c361969f55e882f976588ef9fa69f4f38b9dd0530cddd","697c608fb23a18f07d093e5b","697c60fb0bc97588c754211b","6","60","1200","12","null","","<div class=""feedback-message""><div class=""feedback-correct"">✓</div></div><div class=""stimulus-container""><div class=""position-wrapper""><div class=""position-box "" data-position=""0""></div></div><div class=""position-wrapper""><div class=""position-box "" data-position=""1""></div></div><div class=""position-wrapper""><div class=""position-box "" data-position=""2""></div></div><div class=""position-wrapper""><div class=""position-box active"" data-position=""3""></div></div><div class=""position-wrapper""><div class=""position-box "" data-position=""4""></div></div><div class=""position-wrapper""><div class=""position-box "" data-position=""5""></div></div></div><div class=""finger-diagram-container"">
			<img src=""assets/finger-diagrams/finger-diagram-6pos.png"" alt=""Finger position guide"" class=""finger-diagram"" />
		</div>","null","","","","","","","","","",""
"","","","","","main","rsi","html-keyboard-response","45","152561","0.0-17.0-1.0","P_55a7fed8c8b947bdad8c361969f55e882f976588ef9fa69f4f38b9dd0530cddd","697c608fb23a18f07d093e5b","697c60fb0bc97588c754211b","6","60","1200","12","null","","<div class=""feedback-message""></div><div class=""stimulus-container""><div class=""position-wrapper""><div class=""position-box "" data-position=""0""></div></div><div class=""position-wrapper""><div class=""position-box "" data-position=""1""></div></div><div class=""position-wrapper""><div class=""position-box "" data-position=""2""></div></div><div class=""position-wrapper""><div class=""position-box "" data-position=""3""></div></div><div class=""position-wrapper""><div class=""position-box "" data-position=""4""></div></div><div class=""position-wrapper""><div class=""position-box "" data-position=""5""></div></div></div><div class=""finger-diagram-container"">
			<img src=""assets/finger-diagrams/finger-diagram-6pos.png"" alt=""Finger position guide"" class=""finger-diagram"" />
		</div>","null","","","","","","","","","",""
"","","","","","main","stimulus","html-keyboard-response","46","152978","0.0-18.0-0.0-0.0","P_55a7fed8c8b947bdad8c361969f55e882f976588ef9fa69f4f38b9dd0530cddd","697c608fb23a18f07d093e5b","697c60fb0bc97588c754211b","6","60","1200","12","414","","<div class=""feedback-message""></div><div class=""stimulus-container""><div class=""position-wrapper""><div class=""position-box "" data-position=""0""></div></div><div class=""position-wrapper""><div class=""position-box "" data-position=""1""></div></div><div class=""position-wrapper""><div class=""position-box "" data-position=""2""></div></div><div class=""position-wrapper""><div class=""position-box active"" data-position=""3""></div></div><div class=""position-wrapper""><div class=""position-box "" data-position=""4""></div></div><div class=""position-wrapper""><div class=""position-box "" data-position=""5""></div></div></div><div class=""finger-diagram-container"">
			<img src=""assets/finger-diagrams/finger-diagram-6pos.png"" alt=""Finger position guide"" class=""finger-diagram"" />
		</div>","j","3","j","1.7164586615480486","2.136888421292045","true","0","1","1","",""
"","","","","","main","feedback","html-keyboard-response","47","153196","0.0-18.0-0.0-1.0","P_55a7fed8c8b947bdad8c361969f55e882f976588ef9fa69f4f38b9dd0530cddd","697c608fb23a18f07d093e5b","697c60fb0bc97588c754211b","6","60","1200","12","null","","<div class=""feedback-message""><div class=""feedback-correct"">✓</div></div><div class=""stimulus-container""><div class=""position-wrapper""><div class=""position-box "" data-position=""0""></div></div><div class=""position-wrapper""><div class=""position-box "" data-position=""1""></div></div><div class=""position-wrapper""><div class=""position-box "" data-position=""2""></div></div><div class=""position-wrapper""><div class=""position-box active"" data-position=""3""></div></div><div class=""position-wrapper""><div class=""position-box "" data-position=""4""></div></div><div class=""position-wrapper""><div class=""position-box "" data-position=""5""></div></div></div><div class=""finger-diagram-container"">
			<img src=""assets/finger-diagrams/finger-diagram-6pos.png"" alt=""Finger position guide"" class=""finger-diagram"" />
		</div>","null","","","","","","","","","",""
"","","","","","main","rsi","html-keyboard-response","48","153322","0.0-18.0-1.0","P_55a7fed8c8b947bdad8c361969f55e882f976588ef9fa69f4f38b9dd0530cddd","697c608fb23a18f07d093e5b","697c60fb0bc97588c754211b","6","60","1200","12","null","","<div class=""feedback-message""></div><div class=""stimulus-container""><div class=""position-wrapper""><div class=""position-box "" data-position=""0""></div></div><div class=""position-wrapper""><div class=""position-box "" data-position=""1""></div></div><div class=""position-wrapper""><div class=""position-box "" data-position=""2""></div></div><div class=""position-wrapper""><div class=""position-box "" data-position=""3""></div></div><div class=""position-wrapper""><div class=""position-box "" data-position=""4""></div></div><div class=""position-wrapper""><div class=""position-box "" data-position=""5""></div></div></div><div class=""finger-diagram-container"">
			<img src=""assets/finger-diagrams/finger-diagram-6pos.png"" alt=""Finger position guide"" class=""finger-diagram"" />
		</div>","null","","","","","","","","","",""
"","","","","","main","stimulus","html-keyboard-response","49","153872","0.0-19.0-0.0-0.0","P_55a7fed8c8b947bdad8c361969f55e882f976588ef9fa69f4f38b9dd0530cddd","697c608fb23a18f07d093e5b","697c60fb0bc97588c754211b","6","60","1200","12","548","","<div class=""feedback-message""></div><div class=""stimulus-container""><div class=""position-wrapper""><div class=""position-box "" data-position=""0""></div></div><div class=""position-wrapper""><div class=""position-box "" data-position=""1""></div></div><div class=""position-wrapper""><div class=""position-box active"" data-position=""2""></div></div><div class=""position-wrapper""><div class=""position-box "" data-position=""3""></div></div><div class=""position-wrapper""><div class=""position-box "" data-position=""4""></div></div><div class=""position-wrapper""><div class=""position-box "" data-position=""5""></div></div></div><div class=""finger-diagram-container"">
			<img src=""assets/finger-diagrams/finger-diagram-6pos.png"" alt=""Finger position guide"" class=""finger-diagram"" />
		</div>","f","2","f","1.9197818344737425","1.00700334797659","true","0","2","2","",""
"","","","","","main","feedback","html-keyboard-response","50","154079","0.0-19.0-0.0-1.0","P_55a7fed8c8b947bdad8c361969f55e882f976588ef9fa69f4f38b9dd0530cddd","697c608fb23a18f07d093e5b","697c60fb0bc97588c754211b","6","60","1200","12","null","","<div class=""feedback-message""><div class=""feedback-correct"">✓</div></div><div class=""stimulus-container""><div class=""position-wrapper""><div class=""position-box "" data-position=""0""></div></div><div class=""position-wrapper""><div class=""position-box "" data-position=""1""></div></div><div class=""position-wrapper""><div class=""position-box active"" data-position=""2""></div></div><div class=""position-wrapper""><div class=""position-box "" data-position=""3""></div></div><div class=""position-wrapper""><div class=""position-box "" data-position=""4""></div></div><div class=""position-wrapper""><div class=""position-box "" data-position=""5""></div></div></div><div class=""finger-diagram-container"">
			<img src=""assets/finger-diagrams/finger-diagram-6pos.png"" alt=""Finger position guide"" class=""finger-diagram"" />
		</div>","null","","","","","","","","","",""
"","","","","","main","rsi","html-keyboard-response","51","154210","0.0-19.0-1.0","P_55a7fed8c8b947bdad8c361969f55e882f976588ef9fa69f4f38b9dd0530cddd","697c608fb23a18f07d093e5b","697c60fb0bc97588c754211b","6","60","1200","12","null","","<div class=""feedback-message""></div><div class=""stimulus-container""><div class=""position-wrapper""><div class=""position-box "" data-position=""0""></div></div><div class=""position-wrapper""><div class=""position-box "" data-position=""1""></div></div><div class=""position-wrapper""><div class=""position-box "" data-position=""2""></div></div><div class=""position-wrapper""><div class=""position-box "" data-position=""3""></div></div><div class=""position-wrapper""><div class=""position-box "" data-position=""4""></div></div><div class=""position-wrapper""><div class=""position-box "" data-position=""5""></div></div></div><div class=""finger-diagram-container"">
			<img src=""assets/finger-diagrams/finger-diagram-6pos.png"" alt=""Finger position guide"" class=""finger-diagram"" />
		</div>","null","","","","","","","","","",""
"","","","","","main","stimulus","html-keyboard-response","52","154636","0.0-20.0-0.0-0.0","P_55a7fed8c8b947bdad8c361969f55e882f976588ef9fa69f4f38b9dd0530cddd","697c608fb23a18f07d093e5b","697c60fb0bc97588c754211b","6","60","1200","12","424","","<div class=""feedback-message""></div><div class=""stimulus-container""><div class=""position-wrapper""><div class=""position-box "" data-position=""0""></div></div><div class=""position-wrapper""><div class=""position-box "" data-position=""1""></div></div><div class=""position-wrapper""><div class=""position-box "" data-position=""2""></div></div><div class=""position-wrapper""><div class=""position-box active"" data-position=""3""></div></div><div class=""position-wrapper""><div class=""position-box "" data-position=""4""></div></div><div class=""position-wrapper""><div class=""position-box "" data-position=""5""></div></div></div><div class=""finger-diagram-container"">
			<img src=""assets/finger-diagrams/finger-diagram-6pos.png"" alt=""Finger position guide"" class=""finger-diagram"" />
		</div>","j","3","j","1.7164586615480486","1.9047769601464493","true","0","3","3","",""
"","","","","","main","feedback","html-keyboard-response","53","154842","0.0-20.0-0.0-1.0","P_55a7fed8c8b947bdad8c361969f55e882f976588ef9fa69f4f38b9dd0530cddd","697c608fb23a18f07d093e5b","697c60fb0bc97588c754211b","6","60","1200","12","null","","<div class=""feedback-message""><div class=""feedback-correct"">✓</div></div><div class=""stimulus-container""><div class=""position-wrapper""><div class=""position-box "" data-position=""0""></div></div><div class=""position-wrapper""><div class=""position-box "" data-position=""1""></div></div><div class=""position-wrapper""><div class=""position-box "" data-position=""2""></div></div><div class=""position-wrapper""><div class=""position-box active"" data-position=""3""></div></div><div class=""position-wrapper""><div class=""position-box "" data-position=""4""></div></div><div class=""position-wrapper""><div class=""position-box "" data-position=""5""></div></div></div><div class=""finger-diagram-container"">
			<img src=""assets/finger-diagrams/finger-diagram-6pos.png"" alt=""Finger position guide"" class=""finger-diagram"" />
		</div>","null","","","","","","","","","",""
"","","","","","main","rsi","html-keyboard-response","54","154968","0.0-20.0-1.0","P_55a7fed8c8b947bdad8c361969f55e882f976588ef9fa69f4f38b9dd0530cddd","697c608fb23a18f07d093e5b","697c60fb0bc97588c754211b","6","60","1200","12","null","","<div class=""feedback-message""></div><div class=""stimulus-container""><div class=""position-wrapper""><div class=""position-box "" data-position=""0""></div></div><div class=""position-wrapper""><div class=""position-box "" data-position=""1""></div></div><div class=""position-wrapper""><div class=""position-box "" data-position=""2""></div></div><div class=""position-wrapper""><div class=""position-box "" data-position=""3""></div></div><div class=""position-wrapper""><div class=""position-box "" data-position=""4""></div></div><div class=""position-wrapper""><div class=""position-box "" data-position=""5""></div></div></div><div class=""finger-diagram-container"">
			<img src=""assets/finger-diagrams/finger-diagram-6pos.png"" alt=""Finger position guide"" class=""finger-diagram"" />
		</div>","null","","","","","","","","","",""
"","","","","","main","stimulus","html-keyboard-response","55","155441","0.0-21.0-0.0-0.0","P_55a7fed8c8b947bdad8c361969f55e882f976588ef9fa69f4f38b9dd0530cddd","697c608fb23a18f07d093e5b","697c60fb0bc97588c754211b","6","60","1200","12","473","","<div class=""feedback-message""></div><div class=""stimulus-container""><div class=""position-wrapper""><div class=""position-box "" data-position=""0""></div></div><div class=""position-wrapper""><div class=""position-box "" data-position=""1""></div></div><div class=""position-wrapper""><div class=""position-box active"" data-position=""2""></div></div><div class=""position-wrapper""><div class=""position-box "" data-position=""3""></div></div><div class=""position-wrapper""><div class=""position-box "" data-position=""4""></div></div><div class=""position-wrapper""><div class=""position-box "" data-position=""5""></div></div></div><div class=""finger-diagram-container"">
			<img src=""assets/finger-diagrams/finger-diagram-6pos.png"" alt=""Finger position guide"" class=""finger-diagram"" />
		</div>","f","2","f","1.9197818344737425","1.00700334797659","true","0","4","4","",""
"","","","","","main","feedback","html-keyboard-response","56","155646","0.0-21.0-0.0-1.0","P_55a7fed8c8b947bdad8c361969f55e882f976588ef9fa69f4f38b9dd0530cddd","697c608fb23a18f07d093e5b","697c60fb0bc97588c754211b","6","60","1200","12","null","","<div class=""feedback-message""><div class=""feedback-correct"">✓</div></div><div class=""stimulus-container""><div class=""position-wrapper""><div class=""position-box "" data-position=""0""></div></div><div class=""position-wrapper""><div class=""position-box "" data-position=""1""></div></div><div class=""position-wrapper""><div class=""position-box active"" data-position=""2""></div></div><div class=""position-wrapper""><div class=""position-box "" data-position=""3""></div></div><div class=""position-wrapper""><div class=""position-box "" data-position=""4""></div></div><div class=""position-wrapper""><div class=""position-box "" data-position=""5""></div></div></div><div class=""finger-diagram-container"">
			<img src=""assets/finger-diagrams/finger-diagram-6pos.png"" alt=""Finger position guide"" class=""finger-diagram"" />
		</div>","null","","","","","","","","","",""
"","","","","","main","rsi","html-keyboard-response","57","155780","0.0-21.0-1.0","P_55a7fed8c8b947bdad8c361969f55e882f976588ef9fa69f4f38b9dd0530cddd","697c608fb23a18f07d093e5b","697c60fb0bc97588c754211b","6","60","1200","12","null","","<div class=""feedback-message""></div><div class=""stimulus-container""><div class=""position-wrapper""><div class=""position-box "" data-position=""0""></div></div><div class=""position-wrapper""><div class=""position-box "" data-position=""1""></div></div><div class=""position-wrapper""><div class=""position-box "" data-position=""2""></div></div><div class=""position-wrapper""><div class=""position-box "" data-position=""3""></div></div><div class=""position-wrapper""><div class=""position-box "" data-position=""4""></div></div><div class=""position-wrapper""><div class=""position-box "" data-position=""5""></div></div></div><div class=""finger-diagram-container"">
			<img src=""assets/finger-diagrams/finger-diagram-6pos.png"" alt=""Finger position guide"" class=""finger-diagram"" />
		</div>","null","","","","","","","","","",""
"","","","","","main","stimulus","html-keyboard-response","58","156333","0.0-22.0-0.0-0.0","P_55a7fed8c8b947bdad8c361969f55e882f976588ef9fa69f4f38b9dd0530cddd","697c608fb23a18f07d093e5b","697c60fb0bc97588c754211b","6","60","1200","12","550","","<div class=""feedback-message""></div><div class=""stimulus-container""><div class=""position-wrapper""><div class=""position-box "" data-position=""0""></div></div><div class=""position-wrapper""><div class=""position-box "" data-position=""1""></div></div><div class=""position-wrapper""><div class=""position-box "" data-position=""2""></div></div><div class=""position-wrapper""><div class=""position-box "" data-position=""3""></div></div><div class=""position-wrapper""><div class=""position-box "" data-position=""4""></div></div><div class=""position-wrapper""><div class=""position-box active"" data-position=""5""></div></div></div><div class=""finger-diagram-container"">
			<img src=""assets/finger-diagrams/finger-diagram-6pos.png"" alt=""Finger position guide"" class=""finger-diagram"" />
		</div>","l","5","l","1.6016287006430237","2.230037588621035","true","0","5","5","",""
"","","","","","main","feedback","html-keyboard-response","59","156538","0.0-22.0-0.0-1.0","P_55a7fed8c8b947bdad8c361969f55e882f976588ef9fa69f4f38b9dd0530cddd","697c608fb23a18f07d093e5b","697c60fb0bc97588c754211b","6","60","1200","12","null","","<div class=""feedback-message""><div class=""feedback-correct"">✓</div></div><div class=""stimulus-container""><div class=""position-wrapper""><div class=""position-box "" data-position=""0""></div></div><div class=""position-wrapper""><div class=""position-box "" data-position=""1""></div></div><div class=""position-wrapper""><div class=""position-box "" data-position=""2""></div></div><div class=""position-wrapper""><div class=""position-box "" data-position=""3""></div></div><div class=""position-wrapper""><div class=""position-box "" data-position=""4""></div></div><div class=""position-wrapper""><div class=""position-box active"" data-position=""5""></div></div></div><div class=""finger-diagram-container"">
			<img src=""assets/finger-diagrams/finger-diagram-6pos.png"" alt=""Finger position guide"" class=""finger-diagram"" />
		</div>","null","","","","","","","","","",""
"","","","","","main","rsi","html-keyboard-response","60","156665","0.0-22.0-1.0","P_55a7fed8c8b947bdad8c361969f55e882f976588ef9fa69f4f38b9dd0530cddd","697c608fb23a18f07d093e5b","697c60fb0bc97588c754211b","6","60","1200","12","null","","<div class=""feedback-message""></div><div class=""stimulus-container""><div class=""position-wrapper""><div class=""position-box "" data-position=""0""></div></div><div class=""position-wrapper""><div class=""position-box "" data-position=""1""></div></div><div class=""position-wrapper""><div class=""position-box "" data-position=""2""></div></div><div class=""position-wrapper""><div class=""position-box "" data-position=""3""></div></div><div class=""position-wrapper""><div class=""position-box "" data-position=""4""></div></div><div class=""position-wrapper""><div class=""position-box "" data-position=""5""></div></div></div><div class=""finger-diagram-container"">
			<img src=""assets/finger-diagrams/finger-diagram-6pos.png"" alt=""Finger position guide"" class=""finger-diagram"" />
		</div>","null","","","","","","","","","",""
"","","","","","main","stimulus","html-keyboard-response","61","157136","0.0-23.0-0.0-0.0","P_55a7fed8c8b947bdad8c361969f55e882f976588ef9fa69f4f38b9dd0530cddd","697c608fb23a18f07d093e5b","697c60fb0bc97588c754211b","6","60","1200","12","468","","<div class=""feedback-message""></div><div class=""stimulus-container""><div class=""position-wrapper""><div class=""position-box "" data-position=""0""></div></div><div class=""position-wrapper""><div class=""position-box "" data-position=""1""></div></div><div class=""position-wrapper""><div class=""position-box "" data-position=""2""></div></div><div class=""position-wrapper""><div class=""position-box "" data-position=""3""></div></div><div class=""position-wrapper""><div class=""position-box "" data-position=""4""></div></div><div class=""position-wrapper""><div class=""position-box active"" data-position=""5""></div></div></div><div class=""finger-diagram-container"">
			<img src=""assets/finger-diagrams/finger-diagram-6pos.png"" alt=""Finger position guide"" class=""finger-diagram"" />
		</div>","l","5","l","1.6016287006430237","2.226285203253638","true","0","6","6","",""
"","","","","","main","feedback","html-keyboard-response","62","157348","0.0-23.0-0.0-1.0","P_55a7fed8c8b947bdad8c361969f55e882f976588ef9fa69f4f38b9dd0530cddd","697c608fb23a18f07d093e5b","697c60fb0bc97588c754211b","6","60","1200","12","null","","<div class=""feedback-message""><div class=""feedback-correct"">✓</div></div><div class=""stimulus-container""><div class=""position-wrapper""><div class=""position-box "" data-position=""0""></div></div><div class=""position-wrapper""><div class=""position-box "" data-position=""1""></div></div><div class=""position-wrapper""><div class=""position-box "" data-position=""2""></div></div><div class=""position-wrapper""><div class=""position-box "" data-position=""3""></div></div><div class=""position-wrapper""><div class=""position-box "" data-position=""4""></div></div><div class=""position-wrapper""><div class=""position-box active"" data-position=""5""></div></div></div><div class=""finger-diagram-container"">
			<img src=""assets/finger-diagrams/finger-diagram-6pos.png"" alt=""Finger position guide"" class=""finger-diagram"" />
		</div>","null","","","","","","","","","",""
"","","","","","main","rsi","html-keyboard-response","63","157471","0.0-23.0-1.0","P_55a7fed8c8b947bdad8c361969f55e882f976588ef9fa69f4f38b9dd0530cddd","697c608fb23a18f07d093e5b","697c60fb0bc97588c754211b","6","60","1200","12","null","","<div class=""feedback-message""></div><div class=""stimulus-container""><div class=""position-wrapper""><div class=""position-box "" data-position=""0""></div></div><div class=""position-wrapper""><div class=""position-box "" data-position=""1""></div></div><div class=""position-wrapper""><div class=""position-box "" data-position=""2""></div></div><div class=""position-wrapper""><div class=""position-box "" data-position=""3""></div></div><div class=""position-wrapper""><div class=""position-box "" data-position=""4""></div></div><div class=""position-wrapper""><div class=""position-box "" data-position=""5""></div></div></div><div class=""finger-diagram-container"">
			<img src=""assets/finger-diagrams/finger-diagram-6pos.png"" alt=""Finger position guide"" class=""finger-diagram"" />
		</div>","null","","","","","","","","","",""
"","","","","","main","stimulus","html-keyboard-response","64","157960","0.0-24.0-0.0-0.0","P_55a7fed8c8b947bdad8c361969f55e882f976588ef9fa69f4f38b9dd0530cddd","697c608fb23a18f07d093e5b","697c60fb0bc97588c754211b","6","60","1200","12","488","","<div class=""feedback-message""></div><div class=""stimulus-container""><div class=""position-wrapper""><div class=""position-box active"" data-position=""0""></div></div><div class=""position-wrapper""><div class=""position-box "" data-position=""1""></div></div><div class=""position-wrapper""><div class=""position-box "" data-position=""2""></div></div><div class=""position-wrapper""><div class=""position-box "" data-position=""3""></div></div><div class=""position-wrapper""><div class=""position-box "" data-position=""4""></div></div><div class=""position-wrapper""><div class=""position-box "" data-position=""5""></div></div></div><div class=""finger-diagram-container"">
			<img src=""assets/finger-diagrams/finger-diagram-6pos.png"" alt=""Finger position guide"" class=""finger-diagram"" />
		</div>","s","0","s","0.6265709654819551","1.0125719939883875","true","0","7","7","",""
"","","","","","main","feedback","html-keyboard-response","65","158163","0.0-24.0-0.0-1.0","P_55a7fed8c8b947bdad8c361969f55e882f976588ef9fa69f4f38b9dd0530cddd","697c608fb23a18f07d093e5b","697c60fb0bc97588c754211b","6","60","1200","12","null","","<div class=""feedback-message""><div class=""feedback-correct"">✓</div></div><div class=""stimulus-container""><div class=""position-wrapper""><div class=""position-box active"" data-position=""0""></div></div><div class=""position-wrapper""><div class=""position-box "" data-position=""1""></div></div><div class=""position-wrapper""><div class=""position-box "" data-position=""2""></div></div><div class=""position-wrapper""><div class=""position-box "" data-position=""3""></div></div><div class=""position-wrapper""><div class=""position-box "" data-position=""4""></div></div><div class=""position-wrapper""><div class=""position-box "" data-position=""5""></div></div></div><div class=""finger-diagram-container"">
			<img src=""assets/finger-diagrams/finger-diagram-6pos.png"" alt=""Finger position guide"" class=""finger-diagram"" />
		</div>","null","","","","","","","","","",""
"","","","","","main","rsi","html-keyboard-response","66","158285","0.0-24.0-1.0","P_55a7fed8c8b947bdad8c361969f55e882f976588ef9fa69f4f38b9dd0530cddd","697c608fb23a18f07d093e5b","697c60fb0bc97588c754211b","6","60","1200","12","null","","<div class=""feedback-message""></div><div class=""stimulus-container""><div class=""position-wrapper""><div class=""position-box "" data-position=""0""></div></div><div class=""position-wrapper""><div class=""position-box "" data-position=""1""></div></div><div class=""position-wrapper""><div class=""position-box "" data-position=""2""></div></div><div class=""position-wrapper""><div class=""position-box "" data-position=""3""></div></div><div class=""position-wrapper""><div class=""position-box "" data-position=""4""></div></div><div class=""position-wrapper""><div class=""position-box "" data-position=""5""></div></div></div><div class=""finger-diagram-container"">
			<img src=""assets/finger-diagrams/finger-diagram-6pos.png"" alt=""Finger position guide"" class=""finger-diagram"" />
		</div>","null","","","","","","","","","",""
"","","","","","main","stimulus","html-keyboard-response","67","158726","0.0-25.0-0.0-0.0","P_55a7fed8c8b947bdad8c361969f55e882f976588ef9fa69f4f38b9dd0530cddd","697c608fb23a18f07d093e5b","697c60fb0bc97588c754211b","6","60","1200","12","439","","<div class=""feedback-message""></div><div class=""stimulus-container""><div class=""position-wrapper""><div class=""position-box "" data-position=""0""></div></div><div class=""position-wrapper""><div class=""position-box "" data-position=""1""></div></div><div class=""position-wrapper""><div class=""position-box "" data-position=""2""></div></div><div class=""position-wrapper""><div class=""position-box "" data-position=""3""></div></div><div class=""position-wrapper""><div class=""position-box "" data-position=""4""></div></div><div class=""position-wrapper""><div class=""position-box active"" data-position=""5""></div></div></div><div class=""finger-diagram-container"">
			<img src=""assets/finger-diagrams/finger-diagram-6pos.png"" alt=""Finger position guide"" class=""finger-diagram"" />
		</div>","l","5","l","1.6016287006430237","2.8191226921226544","true","0","8","8","",""
"","","","","","main","feedback","html-keyboard-response","68","158933","0.0-25.0-0.0-1.0","P_55a7fed8c8b947bdad8c361969f55e882f976588ef9fa69f4f38b9dd0530cddd","697c608fb23a18f07d093e5b","697c60fb0bc97588c754211b","6","60","1200","12","null","","<div class=""feedback-message""><div class=""feedback-correct"">✓</div></div><div class=""stimulus-container""><div class=""position-wrapper""><div class=""position-box "" data-position=""0""></div></div><div class=""position-wrapper""><div class=""position-box "" data-position=""1""></div></div><div class=""position-wrapper""><div class=""position-box "" data-position=""2""></div></div><div class=""position-wrapper""><div class=""position-box "" data-position=""3""></div></div><div class=""position-wrapper""><div class=""position-box "" data-position=""4""></div></div><div class=""position-wrapper""><div class=""position-box active"" data-position=""5""></div></div></div><div class=""finger-diagram-container"">
			<img src=""assets/finger-diagrams/finger-diagram-6pos.png"" alt=""Finger position guide"" class=""finger-diagram"" />
		</div>","null","","","","","","","","","",""
"","","","","","main","rsi","html-keyboard-response","69","159067","0.0-25.0-1.0","P_55a7fed8c8b947bdad8c361969f55e882f976588ef9fa69f4f38b9dd0530cddd","697c608fb23a18f07d093e5b","697c60fb0bc97588c754211b","6","60","1200","12","null","","<div class=""feedback-message""></div><div class=""stimulus-container""><div class=""position-wrapper""><div class=""position-box "" data-position=""0""></div></div><div class=""position-wrapper""><div class=""position-box "" data-position=""1""></div></div><div class=""position-wrapper""><div class=""position-box "" data-position=""2""></div></div><div class=""position-wrapper""><div class=""position-box "" data-position=""3""></div></div><div class=""position-wrapper""><div class=""position-box "" data-position=""4""></div></div><div class=""position-wrapper""><div class=""position-box "" data-position=""5""></div></div></div><div class=""finger-diagram-container"">
			<img src=""assets/finger-diagrams/finger-diagram-6pos.png"" alt=""Finger position guide"" class=""finger-diagram"" />
		</div>","null","","","","","","","","","",""
"","","","","","main","stimulus","html-keyboard-response","70","159518","0.0-26.0-0.0-0.0","P_55a7fed8c8b947bdad8c361969f55e882f976588ef9fa69f4f38b9dd0530cddd","697c608fb23a18f07d093e5b","697c60fb0bc97588c754211b","6","60","1200","12","450","","<div class=""feedback-message""></div><div class=""stimulus-container""><div class=""position-wrapper""><div class=""position-box active"" data-position=""0""></div></div><div class=""position-wrapper""><div class=""position-box "" data-position=""1""></div></div><div class=""position-wrapper""><div class=""position-box "" data-position=""2""></div></div><div class=""position-wrapper""><div class=""position-box "" data-position=""3""></div></div><div class=""position-wrapper""><div class=""position-box "" data-position=""4""></div></div><div class=""position-wrapper""><div class=""position-box "" data-position=""5""></div></div></div><div class=""finger-diagram-container"">
			<img src=""assets/finger-diagrams/finger-diagram-6pos.png"" alt=""Finger position guide"" class=""finger-diagram"" />
		</div>","s","0","s","0.6265709654819551","1.0125719939883875","true","0","9","9","",""
"","","","","","main","feedback","html-keyboard-response","71","159722","0.0-26.0-0.0-1.0","P_55a7fed8c8b947bdad8c361969f55e882f976588ef9fa69f4f38b9dd0530cddd","697c608fb23a18f07d093e5b","697c60fb0bc97588c754211b","6","60","1200","12","null","","<div class=""feedback-message""><div class=""feedback-correct"">✓</div></div><div class=""stimulus-container""><div class=""position-wrapper""><div class=""position-box active"" data-position=""0""></div></div><div class=""position-wrapper""><div class=""position-box "" data-position=""1""></div></div><div class=""position-wrapper""><div class=""position-box "" data-position=""2""></div></div><div class=""position-wrapper""><div class=""position-box "" data-position=""3""></div></div><div class=""position-wrapper""><div class=""position-box "" data-position=""4""></div></div><div class=""position-wrapper""><div class=""position-box "" data-position=""5""></div></div></div><div class=""finger-diagram-container"">
			<img src=""assets/finger-diagrams/finger-diagram-6pos.png"" alt=""Finger position guide"" class=""finger-diagram"" />
		</div>","null","","","","","","","","","",""
"","","","","","main","rsi","html-keyboard-response","72","159848","0.0-26.0-1.0","P_55a7fed8c8b947bdad8c361969f55e882f976588ef9fa69f4f38b9dd0530cddd","697c608fb23a18f07d093e5b","697c60fb0bc97588c754211b","6","60","1200","12","null","","<div class=""feedback-message""></div><div class=""stimulus-container""><div class=""position-wrapper""><div class=""position-box "" data-position=""0""></div></div><div class=""position-wrapper""><div class=""position-box "" data-position=""1""></div></div><div class=""position-wrapper""><div class=""position-box "" data-position=""2""></div></div><div class=""position-wrapper""><div class=""position-box "" data-position=""3""></div></div><div class=""position-wrapper""><div class=""position-box "" data-position=""4""></div></div><div class=""position-wrapper""><div class=""position-box "" data-position=""5""></div></div></div><div class=""finger-diagram-container"">
			<img src=""assets/finger-diagrams/finger-diagram-6pos.png"" alt=""Finger position guide"" class=""finger-diagram"" />
		</div>","null","","","","","","","","","",""
"","","","","","main","stimulus","html-keyboard-response","73","160542","0.0-27.0-0.0-0.0","P_55a7fed8c8b947bdad8c361969f55e882f976588ef9fa69f4f38b9dd0530cddd","697c608fb23a18f07d093e5b","697c60fb0bc97588c754211b","6","60","1200","12","693","","<div class=""feedback-message""></div><div class=""stimulus-container""><div class=""position-wrapper""><div class=""position-box "" data-position=""0""></div></div><div class=""position-wrapper""><div class=""position-box "" data-position=""1""></div></div><div class=""position-wrapper""><div class=""position-box "" data-position=""2""></div></div><div class=""position-wrapper""><div class=""position-box "" data-position=""3""></div></div><div class=""position-wrapper""><div class=""position-box active"" data-position=""4""></div></div><div class=""position-wrapper""><div class=""position-box "" data-position=""5""></div></div></div><div class=""finger-diagram-container"">
			<img src=""assets/finger-diagrams/finger-diagram-6pos.png"" alt=""Finger position guide"" class=""finger-diagram"" />
		</div>","k","4","k","0.09237731181353705","0.22743527250800727","true","0","10","10","",""
"","","","","","main","feedback","html-keyboard-response","74","160745","0.0-27.0-0.0-1.0","P_55a7fed8c8b947bdad8c361969f55e882f976588ef9fa69f4f38b9dd0530cddd","697c608fb23a18f07d093e5b","697c60fb0bc97588c754211b","6","60","1200","12","null","","<div class=""feedback-message""><div class=""feedback-correct"">✓</div></div><div class=""stimulus-container""><div class=""position-wrapper""><div class=""position-box "" data-position=""0""></div></div><div class=""position-wrapper""><div class=""position-box "" data-position=""1""></div></div><div class=""position-wrapper""><div class=""position-box "" data-position=""2""></div></div><div class=""position-wrapper""><div class=""position-box "" data-position=""3""></div></div><div class=""position-wrapper""><div class=""position-box active"" data-position=""4""></div></div><div class=""position-wrapper""><div class=""position-box "" data-position=""5""></div></div></div><div class=""finger-diagram-container"">
			<img src=""assets/finger-diagrams/finger-diagram-6pos.png"" alt=""Finger position guide"" class=""finger-diagram"" />
		</div>","null","","","","","","","","","",""
"","","","","","main","rsi","html-keyboard-response","75","160881","0.0-27.0-1.0","P_55a7fed8c8b947bdad8c361969f55e882f976588ef9fa69f4f38b9dd0530cddd","697c608fb23a18f07d093e5b","697c60fb0bc97588c754211b","6","60","1200","12","null","","<div class=""feedback-message""></div><div class=""stimulus-container""><div class=""position-wrapper""><div class=""position-box "" data-position=""0""></div></div><div class=""position-wrapper""><div class=""position-box "" data-position=""1""></div></div><div class=""position-wrapper""><div class=""position-box "" data-position=""2""></div></div><div class=""position-wrapper""><div class=""position-box "" data-position=""3""></div></div><div class=""position-wrapper""><div class=""position-box "" data-position=""4""></div></div><div class=""position-wrapper""><div class=""position-box "" data-position=""5""></div></div></div><div class=""finger-diagram-container"">
			<img src=""assets/finger-diagrams/finger-diagram-6pos.png"" alt=""Finger position guide"" class=""finger-diagram"" />
		</div>","null","","","","","","","","","",""
"","","","","","main","stimulus","html-keyboard-response","76","161756","0.0-28.0-0.0-0.0","P_55a7fed8c8b947bdad8c361969f55e882f976588ef9fa69f4f38b9dd0530cddd","697c608fb23a18f07d093e5b","697c60fb0bc97588c754211b","6","60","1200","12","874","","<div class=""feedback-message""></div><div class=""stimulus-container""><div class=""position-wrapper""><div class=""position-box "" data-position=""0""></div></div><div class=""position-wrapper""><div class=""position-box active"" data-position=""1""></div></div><div class=""position-wrapper""><div class=""position-box "" data-position=""2""></div></div><div class=""position-wrapper""><div class=""position-box "" data-position=""3""></div></div><div class=""position-wrapper""><div class=""position-box "" data-position=""4""></div></div><div class=""position-wrapper""><div class=""position-box "" data-position=""5""></div></div></div><div class=""finger-diagram-container"">
			<img src=""assets/finger-diagrams/finger-diagram-6pos.png"" alt=""Finger position guide"" class=""finger-diagram"" />
		</div>","d","1","d","1.7163490803009984","0.01709636891849747","true","0","11","11","",""
"","","","","","main","feedback","html-keyboard-response","77","161966","0.0-28.0-0.0-1.0","P_55a7fed8c8b947bdad8c361969f55e882f976588ef9fa69f4f38b9dd0530cddd","697c608fb23a18f07d093e5b","697c60fb0bc97588c754211b","6","60","1200","12","null","","<div class=""feedback-message""><div class=""feedback-correct"">✓</div></div><div class=""stimulus-container""><div class=""position-wrapper""><div class=""position-box "" data-position=""0""></div></div><div class=""position-wrapper""><div class=""position-box active"" data-position=""1""></div></div><div class=""position-wrapper""><div class=""position-box "" data-position=""2""></div></div><div class=""position-wrapper""><div class=""position-box "" data-position=""3""></div></div><div class=""position-wrapper""><div class=""position-box "" data-position=""4""></div></div><div class=""position-wrapper""><div class=""position-box "" data-position=""5""></div></div></div><div class=""finger-diagram-container"">
			<img src=""assets/finger-diagrams/finger-diagram-6pos.png"" alt=""Finger position guide"" class=""finger-diagram"" />
		</div>","null","","","","","","","","","",""
"","","","","","main","rsi","html-keyboard-response","78","162092","0.0-28.0-1.0","P_55a7fed8c8b947bdad8c361969f55e882f976588ef9fa69f4f38b9dd0530cddd","697c608fb23a18f07d093e5b","697c60fb0bc97588c754211b","6","60","1200","12","null","","<div class=""feedback-message""></div><div class=""stimulus-container""><div class=""position-wrapper""><div class=""position-box "" data-position=""0""></div></div><div class=""position-wrapper""><div class=""position-box "" data-position=""1""></div></div><div class=""position-wrapper""><div class=""position-box "" data-position=""2""></div></div><div class=""position-wrapper""><div class=""position-box "" data-position=""3""></div></div><div class=""position-wrapper""><div class=""position-box "" data-position=""4""></div></div><div class=""position-wrapper""><div class=""position-box "" data-position=""5""></div></div></div><div class=""finger-diagram-container"">
			<img src=""assets/finger-diagrams/finger-diagram-6pos.png"" alt=""Finger position guide"" class=""finger-diagram"" />
		</div>","null","","","","","","","","","",""
"","","","","","main","stimulus","html-keyboard-response","79","162646","0.0-29.0-0.0-0.0","P_55a7fed8c8b947bdad8c361969f55e882f976588ef9fa69f4f38b9dd0530cddd","697c608fb23a18f07d093e5b","697c60fb0bc97588c754211b","6","60","1200","12","553","","<div class=""feedback-message""></div><div class=""stimulus-container""><div class=""position-wrapper""><div class=""position-box "" data-position=""0""></div></div><div class=""position-wrapper""><div class=""position-box "" data-position=""1""></div></div><div class=""position-wrapper""><div class=""position-box "" data-position=""2""></div></div><div class=""position-wrapper""><div class=""position-box active"" data-position=""3""></div></div><div class=""position-wrapper""><div class=""position-box "" data-position=""4""></div></div><div class=""position-wrapper""><div class=""position-box "" data-position=""5""></div></div></div><div class=""finger-diagram-container"">
			<img src=""assets/finger-diagrams/finger-diagram-6pos.png"" alt=""Finger position guide"" class=""finger-diagram"" />
		</div>","j","3","j","1.7164586615480486","2.137181670080976","true","0","12","12","",""
"","","","","","main","feedback","html-keyboard-response","80","162850","0.0-29.0-0.0-1.0","P_55a7fed8c8b947bdad8c361969f55e882f976588ef9fa69f4f38b9dd0530cddd","697c608fb23a18f07d093e5b","697c60fb0bc97588c754211b","6","60","1200","12","null","","<div class=""feedback-message""><div class=""feedback-correct"">✓</div></div><div class=""stimulus-container""><div class=""position-wrapper""><div class=""position-box "" data-position=""0""></div></div><div class=""position-wrapper""><div class=""position-box "" data-position=""1""></div></div><div class=""position-wrapper""><div class=""position-box "" data-position=""2""></div></div><div class=""position-wrapper""><div class=""position-box active"" data-position=""3""></div></div><div class=""position-wrapper""><div class=""position-box "" data-position=""4""></div></div><div class=""position-wrapper""><div class=""position-box "" data-position=""5""></div></div></div><div class=""finger-diagram-container"">
			<img src=""assets/finger-diagrams/finger-diagram-6pos.png"" alt=""Finger position guide"" class=""finger-diagram"" />
		</div>","null","","","","","","","","","",""
"","","","","","main","rsi","html-keyboard-response","81","162977","0.0-29.0-1.0","P_55a7fed8c8b947bdad8c361969f55e882f976588ef9fa69f4f38b9dd0530cddd","697c608fb23a18f07d093e5b","697c60fb0bc97588c754211b","6","60","1200","12","null","","<div class=""feedback-message""></div><div class=""stimulus-container""><div class=""position-wrapper""><div class=""position-box "" data-position=""0""></div></div><div class=""position-wrapper""><div class=""position-box "" data-position=""1""></div></div><div class=""position-wrapper""><div class=""position-box "" data-position=""2""></div></div><div class=""position-wrapper""><div class=""position-box "" data-position=""3""></div></div><div class=""position-wrapper""><div class=""position-box "" data-position=""4""></div></div><div class=""position-wrapper""><div class=""position-box "" data-position=""5""></div></div></div><div class=""finger-diagram-container"">
			<img src=""assets/finger-diagrams/finger-diagram-6pos.png"" alt=""Finger position guide"" class=""finger-diagram"" />
		</div>","null","","","","","","","","","",""
"","","","","","main","stimulus","html-keyboard-response","82","163581","0.0-30.0-0.0-0.0","P_55a7fed8c8b947bdad8c361969f55e882f976588ef9fa69f4f38b9dd0530cddd","697c608fb23a18f07d093e5b","697c60fb0bc97588c754211b","6","60","1200","12","603","","<div class=""feedback-message""></div><div class=""stimulus-container""><div class=""position-wrapper""><div class=""position-box "" data-position=""0""></div></div><div class=""position-wrapper""><div class=""position-box "" data-position=""1""></div></div><div class=""position-wrapper""><div class=""position-box active"" data-position=""2""></div></div><div class=""position-wrapper""><div class=""position-box "" data-position=""3""></div></div><div class=""position-wrapper""><div class=""position-box "" data-position=""4""></div></div><div class=""position-wrapper""><div class=""position-box "" data-position=""5""></div></div></div><div class=""finger-diagram-container"">
			<img src=""assets/finger-diagrams/finger-diagram-6pos.png"" alt=""Finger position guide"" class=""finger-diagram"" />
		</div>","f","2","f","1.9197818344737425","1.00700334797659","true","0","13","13","",""
"","","","","","main","feedback","html-keyboard-response","83","163786","0.0-30.0-0.0-1.0","P_55a7fed8c8b947bdad8c361969f55e882f976588ef9fa69f4f38b9dd0530cddd","697c608fb23a18f07d093e5b","697c60fb0bc97588c754211b","6","60","1200","12","null","","<div class=""feedback-message""><div class=""feedback-correct"">✓</div></div><div class=""stimulus-container""><div class=""position-wrapper""><div class=""position-box "" data-position=""0""></div></div><div class=""position-wrapper""><div class=""position-box "" data-position=""1""></div></div><div class=""position-wrapper""><div class=""position-box active"" data-position=""2""></div></div><div class=""position-wrapper""><div class=""position-box "" data-position=""3""></div></div><div class=""position-wrapper""><div class=""position-box "" data-position=""4""></div></div><div class=""position-wrapper""><div class=""position-box "" data-position=""5""></div></div></div><div class=""finger-diagram-container"">
			<img src=""assets/finger-diagrams/finger-diagram-6pos.png"" alt=""Finger position guide"" class=""finger-diagram"" />
		</div>","null","","","","","","","","","",""
"","","","","","main","rsi","html-keyboard-response","84","163910","0.0-30.0-1.0","P_55a7fed8c8b947bdad8c361969f55e882f976588ef9fa69f4f38b9dd0530cddd","697c608fb23a18f07d093e5b","697c60fb0bc97588c754211b","6","60","1200","12","null","","<div class=""feedback-message""></div><div class=""stimulus-container""><div class=""position-wrapper""><div class=""position-box "" data-position=""0""></div></div><div class=""position-wrapper""><div class=""position-box "" data-position=""1""></div></div><div class=""position-wrapper""><div class=""position-box "" data-position=""2""></div></div><div class=""position-wrapper""><div class=""position-box "" data-position=""3""></div></div><div class=""position-wrapper""><div class=""position-box "" data-position=""4""></div></div><div class=""position-wrapper""><div class=""position-box "" data-position=""5""></div></div></div><div class=""finger-diagram-container"">
			<img src=""assets/finger-diagrams/finger-diagram-6pos.png"" alt=""Finger position guide"" class=""finger-diagram"" />
		</div>","null","","","","","","","","","",""
