"success","timeout","failed_images","failed_audio","failed_video","phase","experiment_trial_type","trial_type","trial_index","time_elapsed","internal_node_id","subject_id","study_id","session_id","matrix_size","trials_per_block","total_trials","practice_trials","rt","view_history","stimulus","response","position","correct_key","conditional_entropy","surprisal","correct","block","trial_in_block","overall_trial","question_order","questionnaire_item"
"true","false","[]","[]","[]","preload","preload","preload","0","4954","0.0-0.0","P_75b53fc0f584fae0d3381340a9067791ba350bcc663cc3ca4eee000dd7215a48","697c608fb23a18f07d093e5b","697c610682796cf0d2f48a45","6","60","1200","12","","","","","","","","","","","","","",""
"true","","","","","fullscreen","fullscreen","fullscreen","1","51925","0.0-1.0","P_75b53fc0f584fae0d3381340a9067791ba350bcc663cc3ca4eee000dd7215a48","697c608fb23a18f07d093e5b","697c610682796cf0d2f48a45","6","60","1200","12","45955","","","","","","","","","","","","",""
"","","","","","instructions","instructions","instructions","2","301526","0.0-2.0","P_75b53fc0f584fae0d3381340a9067791ba350bcc663cc3ca4eee000dd7215a48","697c608fb23a18f07d093e5b","697c610682796cf0d2f48a45","6","60","1200","12","249599","[{""page_index"":0,""viewing_time"":15215},{""page_index"":1,""viewing_time"":230034},{""page_index"":2,""viewing_time"":4350}]","","","","","","","","","","","",""
"","","","","","","","html-keyboard-response","3","323383","0.0-3.0","P_75b53fc0f584fae0d3381340a9067791ba350bcc663cc3ca4eee000dd7215a48","697c608fb23a18f07d093e5b","697c610682796cf0d2f48a45","6","60","1200","12","21855","","
				<div class=""instruction-text"">
					<h2>Practice</h2>
					<p>You wil start with 12 practice trials to get familiar with the task.</p>
					<p><strong>Ready to practice? Please rest your fingers on these keys throughout the task, as demonstrated below:</strong></p>
					<img src=""assets/key-mappings-6pos.gif"" alt=""Key Mapping"" class=""key-mapping-image"" />
					<p style=""text-align: center;"">Press any key to begin the practice trials.</p>
				</div>","l","","","","","","","","","",""
"","","","","","practice","stimulus","html-keyboard-response","4","326182","0.0-4.0-0.0-0.0","P_75b53fc0f584fae0d3381340a9067791ba350bcc663cc3ca4eee000dd7215a48","697c608fb23a18f07d093e5b","697c610682796cf0d2f48a45","6","60","1200","12","2798","","<div class=""feedback-message""></div><div class=""stimulus-container""><div class=""position-wrapper""><div class=""key-label"">S</div><div class=""position-box "" data-position=""0""></div></div><div class=""position-wrapper""><div class=""key-label"">D</div><div class=""position-box "" data-position=""1""></div></div><div class=""position-wrapper""><div class=""key-label"">F</div><div class=""position-box "" data-position=""2""></div></div><div class=""position-wrapper""><div class=""key-label"">J</div><div class=""position-box active"" data-position=""3""></div></div><div class=""position-wrapper""><div class=""key-label"">K</div><div class=""position-box "" data-position=""4""></div></div><div class=""position-wrapper""><div class=""key-label"">L</div><div class=""position-box "" data-position=""5""></div></div></div><div class=""finger-diagram-container"">
			<img src=""assets/finger-diagrams/finger-diagram-6pos.png"" alt=""Finger position guide"" class=""finger-diagram"" />
		</div>","j","3","j","1.7164586615480486","null","true","","","","",""
"","","","","","practice","feedback","html-keyboard-response","5","326415","0.0-4.0-0.0-1.0","P_75b53fc0f584fae0d3381340a9067791ba350bcc663cc3ca4eee000dd7215a48","697c608fb23a18f07d093e5b","697c610682796cf0d2f48a45","6","60","1200","12","null","","<div class=""feedback-message""><div class=""feedback-correct"">✓</div></div><div class=""stimulus-container""><div class=""position-wrapper""><div class=""key-label"">S</div><div class=""position-box "" data-position=""0""></div></div><div class=""position-wrapper""><div class=""key-label"">D</div><div class=""position-box "" data-position=""1""></div></div><div class=""position-wrapper""><div class=""key-label"">F</div><div class=""position-box "" data-position=""2""></div></div><div class=""position-wrapper""><div class=""key-label"">J</div><div class=""position-box active"" data-position=""3""></div></div><div class=""position-wrapper""><div class=""key-label"">K</div><div class=""position-box "" data-position=""4""></div></div><div class=""position-wrapper""><div class=""key-label"">L</div><div class=""position-box "" data-position=""5""></div></div></div><div class=""finger-diagram-container"">
			<img src=""assets/finger-diagrams/finger-diagram-6pos.png"" alt=""Finger position guide"" class=""finger-diagram"" />
		</div>","null","","","","","","","","","",""
"","","","","","practice","rsi","html-keyboard-response","6","326544","0.0-4.0-1.0","P_75b53fc0f584fae0d3381340a9067791ba350bcc663cc3ca4eee000dd7215a48","697c608fb23a18f07d093e5b","697c610682796cf0d2f48a45","6","60","1200","12","null","","<div class=""feedback-message""></div><div class=""stimulus-container""><div class=""position-wrapper""><div class=""key-label"">S</div><div class=""position-box "" data-position=""0""></div></div><div class=""position-wrapper""><div class=""key-label"">D</div><div class=""position-box "" data-position=""1""></div></div><div class=""position-wrapper""><div class=""key-label"">F</div><div class=""position-box "" data-position=""2""></div></div><div class=""position-wrapper""><div class=""key-label"">J</div><div class=""position-box "" data-position=""3""></div></div><div class=""position-wrapper""><div class=""key-label"">K</div><div class=""position-box "" data-position=""4""></div></div><div class=""position-wrapper""><div class=""key-label"">L</div><div class=""position-box "" data-position=""5""></div></div></div><div class=""finger-diagram-container"">
			<img src=""assets/finger-diagrams/finger-diagram-6pos.png"" alt=""Finger position guide"" class=""finger-diagram"" />
		</div>","null","","","","","","","","","",""
"","","","","","practice","stimulus","html-keyboard-response","7","327738","0.0-5.0-0.0-0.0","P_75b53fc0f584fae0d3381340a9067791ba350bcc663cc3ca4eee000dd7215a48","697c608fb23a18f07d093e5b","697c610682796cf0d2f48a45","6","60","1200","12","1192","","<div class=""feedback-message""></div><div class=""stimulus-container""><div class=""position-wrapper""><div class=""key-label"">S</div><div class=""position-box "" data-position=""0""></div></div><div class=""position-wrapper""><div class=""key-label"">D</div><div class=""position-box "" data-position=""1""></div></div><div class=""position-wrapper""><div class=""key-label"">F</div><div class=""position-box "" data-position=""2""></div></div><div class=""position-wrapper""><div class=""key-label"">J</div><div class=""position-box "" data-position=""3""></div></div><div class=""position-wrapper""><div class=""key-label"">K</div><div class=""position-box active"" data-position=""4""></div></div><div class=""position-wrapper""><div class=""key-label"">L</div><div class=""position-box "" data-position=""5""></div></div></div><div class=""finger-diagram-container"">
			<img src=""assets/finger-diagrams/finger-diagram-6pos.png"" alt=""Finger position guide"" class=""finger-diagram"" />
		</div>","k","4","k","1.7163490803009984","null","true","","","","",""
"","","","","","practice","feedback","html-keyboard-response","8","327947","0.0-5.0-0.0-1.0","P_75b53fc0f584fae0d3381340a9067791ba350bcc663cc3ca4eee000dd7215a48","697c608fb23a18f07d093e5b","697c610682796cf0d2f48a45","6","60","1200","12","null","","<div class=""feedback-message""><div class=""feedback-correct"">✓</div></div><div class=""stimulus-container""><div class=""position-wrapper""><div class=""key-label"">S</div><div class=""position-box "" data-position=""0""></div></div><div class=""position-wrapper""><div class=""key-label"">D</div><div class=""position-box "" data-position=""1""></div></div><div class=""position-wrapper""><div class=""key-label"">F</div><div class=""position-box "" data-position=""2""></div></div><div class=""position-wrapper""><div class=""key-label"">J</div><div class=""position-box "" data-position=""3""></div></div><div class=""position-wrapper""><div class=""key-label"">K</div><div class=""position-box active"" data-position=""4""></div></div><div class=""position-wrapper""><div class=""key-label"">L</div><div class=""position-box "" data-position=""5""></div></div></div><div class=""finger-diagram-container"">
			<img src=""assets/finger-diagrams/finger-diagram-6pos.png"" alt=""Finger position guide"" class=""finger-diagram"" />
		</div>","null","","","","","","","","","",""
"","","","","","practice","rsi","html-keyboard-response","9","328075","0.0-5.0-1.0","P_75b53fc0f584fae0d3381340a9067791ba350bcc663cc3ca4eee000dd7215a48","697c608fb23a18f07d093e5b","697c610682796cf0d2f48a45","6","60","1200","12","null","","<div class=""feedback-message""></div><div class=""stimulus-container""><div class=""position-wrapper""><div class=""key-label"">S</div><div class=""position-box "" data-position=""0""></div></div><div class=""position-wrapper""><div class=""key-label"">D</div><div class=""position-box "" data-position=""1""></div></div><div class=""position-wrapper""><div class=""key-label"">F</div><div class=""position-box "" data-position=""2""></div></div><div class=""position-wrapper""><div class=""key-label"">J</div><div class=""position-box "" data-position=""3""></div></div><div class=""position-wrapper""><div class=""key-label"">K</div><div class=""position-box "" data-position=""4""></div></div><div class=""position-wrapper""><div class=""key-label"">L</div><div class=""position-box "" data-position=""5""></div></div></div><div class=""finger-diagram-container"">
			<img src=""assets/finger-diagrams/finger-diagram-6pos.png"" alt=""Finger position guide"" class=""finger-diagram"" />
		</div>","null","","","","","","","","","",""
"","","","","","practice","stimulus","html-keyboard-response","10","329804","0.0-6.0-0.0-0.0","P_75b53fc0f584fae0d3381340a9067791ba350bcc663cc3ca4eee000dd7215a48","697c608fb23a18f07d093e5b","697c610682796cf0d2f48a45","6","60","1200","12","1728","","<div class=""feedback-message""></div><div class=""stimulus-container""><div class=""position-wrapper""><div class=""key-label"">S</div><div class=""position-box active"" data-position=""0""></div></div><div class=""position-wrapper""><div class=""key-label"">D</div><div class=""position-box "" data-position=""1""></div></div><div class=""position-wrapper""><div class=""key-label"">F</div><div class=""position-box "" data-position=""2""></div></div><div class=""position-wrapper""><div class=""key-label"">J</div><div class=""position-box "" data-position=""3""></div></div><div class=""position-wrapper""><div class=""key-label"">K</div><div class=""position-box "" data-position=""4""></div></div><div class=""position-wrapper""><div class=""key-label"">L</div><div class=""position-box "" data-position=""5""></div></div></div><div class=""finger-diagram-container"">
			<img src=""assets/finger-diagrams/finger-diagram-6pos.png"" alt=""Finger position guide"" class=""finger-diagram"" />
		</div>","s","0","s","0.6265709654819551","3.939032191874535","true","","","","",""
"","","","","","practice","feedback","html-keyboard-response","11","330015","0.0-6.0-0.0-1.0","P_75b53fc0f584fae0d3381340a9067791ba350bcc663cc3ca4eee000dd7215a48","697c608fb23a18f07d093e5b","697c610682796cf0d2f48a45","6","60","1200","12","null","","<div class=""feedback-message""><div class=""feedback-correct"">✓</div></div><div class=""stimulus-container""><div class=""position-wrapper""><div class=""key-label"">S</div><div class=""position-box active"" data-position=""0""></div></div><div class=""position-wrapper""><div class=""key-label"">D</div><div class=""position-box "" data-position=""1""></div></div><div class=""position-wrapper""><div class=""key-label"">F</div><div class=""position-box "" data-position=""2""></div></div><div class=""position-wrapper""><div class=""key-label"">J</div><div class=""position-box "" data-position=""3""></div></div><div class=""position-wrapper""><div class=""key-label"">K</div><div class=""position-box "" data-position=""4""></div></div><div class=""position-wrapper""><div class=""key-label"">L</div><div class=""position-box "" data-position=""5""></div></div></div><div class=""finger-diagram-container"">
			<img src=""assets/finger-diagrams/finger-diagram-6pos.png"" alt=""Finger position guide"" class=""finger-diagram"" />
		</div>","null","","","","","","","","","",""
"","","","","","practice","rsi","html-keyboard-response","12","330137","0.0-6.0-1.0","P_75b53fc0f584fae0d3381340a9067791ba350bcc663cc3ca4eee000dd7215a48","697c608fb23a18f07d093e5b","697c610682796cf0d2f48a45","6","60","1200","12","null","","<div class=""feedback-message""></div><div class=""stimulus-container""><div class=""position-wrapper""><div class=""key-label"">S</div><div class=""position-box "" data-position=""0""></div></div><div class=""position-wrapper""><div class=""key-label"">D</div><div class=""position-box "" data-position=""1""></div></div><div class=""position-wrapper""><div class=""key-label"">F</div><div class=""position-box "" data-position=""2""></div></div><div class=""position-wrapper""><div class=""key-label"">J</div><div class=""position-box "" data-position=""3""></div></div><div class=""position-wrapper""><div class=""key-label"">K</div><div class=""position-box "" data-position=""4""></div></div><div class=""position-wrapper""><div class=""key-label"">L</div><div class=""position-box "" data-position=""5""></div></div></div><div class=""finger-diagram-container"">
			<img src=""assets/finger-diagrams/finger-diagram-6pos.png"" alt=""Finger position guide"" class=""finger-diagram"" />
		</div>","null","","","","","","","","","",""
"","","","","","practice","stimulus","html-keyboard-response","13","331690","0.0-7.0-0.0-0.0","P_75b53fc0f584fae0d3381340a9067791ba350bcc663cc3ca4eee000dd7215a48","697c608fb23a18f07d093e5b","697c610682796cf0d2f48a45","6","60","1200","12","1552","","<div class=""feedback-message""></div><div class=""stimulus-container""><div class=""position-wrapper""><div class=""key-label"">S</div><div class=""position-box "" data-position=""0""></div></div><div class=""position-wrapper""><div class=""key-label"">D</div><div class=""position-box "" data-position=""1""></div></div><div class=""position-wrapper""><div class=""key-label"">F</div><div class=""position-box active"" data-position=""2""></div></div><div class=""position-wrapper""><div class=""key-label"">J</div><div class=""position-box "" data-position=""3""></div></div><div class=""position-wrapper""><div class=""key-label"">K</div><div class=""position-box "" data-position=""4""></div></div><div class=""position-wrapper""><div class=""key-label"">L</div><div class=""position-box "" data-position=""5""></div></div></div><div class=""finger-diagram-container"">
			<img src=""assets/finger-diagrams/finger-diagram-6pos.png"" alt=""Finger position guide"" class=""finger-diagram"" />
		</div>","s","2","f","1.6016287006430232","2.8191226921226544","false","","","","",""
"","","","","","practice","feedback","html-keyboard-response","14","332013","0.0-7.0-0.0-1.0","P_75b53fc0f584fae0d3381340a9067791ba350bcc663cc3ca4eee000dd7215a48","697c608fb23a18f07d093e5b","697c610682796cf0d2f48a45","6","60","1200","12","null","","<div class=""feedback-message""><div class=""feedback-error"">✗<br>Try again!</div></div><div class=""stimulus-container""><div class=""position-wrapper""><div class=""key-label"">S</div><div class=""position-box "" data-position=""0""></div></div><div class=""position-wrapper""><div class=""key-label"">D</div><div class=""position-box "" data-position=""1""></div></div><div class=""position-wrapper""><div class=""key-label"">F</div><div class=""position-box active"" data-position=""2""></div></div><div class=""position-wrapper""><div class=""key-label"">J</div><div class=""position-box "" data-position=""3""></div></div><div class=""position-wrapper""><div class=""key-label"">K</div><div class=""position-box "" data-position=""4""></div></div><div class=""position-wrapper""><div class=""key-label"">L</div><div class=""position-box "" data-position=""5""></div></div></div><div class=""finger-diagram-container"">
			<img src=""assets/finger-diagrams/finger-diagram-6pos.png"" alt=""Finger position guide"" class=""finger-diagram"" />
		</div>","null","","","","","","","","","",""
"","","","","","practice","retry","html-keyboard-response","15","332719","0.0-7.0-0.1-0.1","P_75b53fc0f584fae0d3381340a9067791ba350bcc663cc3ca4eee000dd7215a48","697c608fb23a18f07d093e5b","697c610682796cf0d2f48a45","6","60","1200","12","705","","<div class=""feedback-message""></div><div class=""stimulus-container""><div class=""position-wrapper""><div class=""key-label"">S</div><div class=""position-box "" data-position=""0""></div></div><div class=""position-wrapper""><div class=""key-label"">D</div><div class=""position-box "" data-position=""1""></div></div><div class=""position-wrapper""><div class=""key-label"">F</div><div class=""position-box active"" data-position=""2""></div></div><div class=""position-wrapper""><div class=""key-label"">J</div><div class=""position-box "" data-position=""3""></div></div><div class=""position-wrapper""><div class=""key-label"">K</div><div class=""position-box "" data-position=""4""></div></div><div class=""position-wrapper""><div class=""key-label"">L</div><div class=""position-box "" data-position=""5""></div></div></div><div class=""finger-diagram-container"">
			<img src=""assets/finger-diagrams/finger-diagram-6pos.png"" alt=""Finger position guide"" class=""finger-diagram"" />
		</div>","f","2","f","1.6016287006430232","2.8191226921226544","true","","","","",""
"","","","","","practice","feedback","html-keyboard-response","16","332923","0.0-7.0-0.1-1.1","P_75b53fc0f584fae0d3381340a9067791ba350bcc663cc3ca4eee000dd7215a48","697c608fb23a18f07d093e5b","697c610682796cf0d2f48a45","6","60","1200","12","null","","<div class=""feedback-message""><div class=""feedback-correct"">✓</div></div><div class=""stimulus-container""><div class=""position-wrapper""><div class=""key-label"">S</div><div class=""position-box "" data-position=""0""></div></div><div class=""position-wrapper""><div class=""key-label"">D</div><div class=""position-box "" data-position=""1""></div></div><div class=""position-wrapper""><div class=""key-label"">F</div><div class=""position-box active"" data-position=""2""></div></div><div class=""position-wrapper""><div class=""key-label"">J</div><div class=""position-box "" data-position=""3""></div></div><div class=""position-wrapper""><div class=""key-label"">K</div><div class=""position-box "" data-position=""4""></div></div><div class=""position-wrapper""><div class=""key-label"">L</div><div class=""position-box "" data-position=""5""></div></div></div><div class=""finger-diagram-container"">
			<img src=""assets/finger-diagrams/finger-diagram-6pos.png"" alt=""Finger position guide"" class=""finger-diagram"" />
		</div>","null","","","","","","","","","",""
"","","","","","practice","rsi","html-keyboard-response","17","333049","0.0-7.0-1.0","P_75b53fc0f584fae0d3381340a9067791ba350bcc663cc3ca4eee000dd7215a48","697c608fb23a18f07d093e5b","697c610682796cf0d2f48a45","6","60","1200","12","null","","<div class=""feedback-message""></div><div class=""stimulus-container""><div class=""position-wrapper""><div class=""key-label"">S</div><div class=""position-box "" data-position=""0""></div></div><div class=""position-wrapper""><div class=""key-label"">D</div><div class=""position-box "" data-position=""1""></div></div><div class=""position-wrapper""><div class=""key-label"">F</div><div class=""position-box "" data-position=""2""></div></div><div class=""position-wrapper""><div class=""key-label"">J</div><div class=""position-box "" data-position=""3""></div></div><div class=""position-wrapper""><div class=""key-label"">K</div><div class=""position-box "" data-position=""4""></div></div><div class=""position-wrapper""><div class=""key-label"">L</div><div class=""position-box "" data-position=""5""></div></div></div><div class=""finger-diagram-container"">
			<img src=""assets/finger-diagrams/finger-diagram-6pos.png"" alt=""Finger position guide"" class=""finger-diagram"" />
		</div>","null","","","","","","","","","",""
"","","","","","practice","stimulus","html-keyboard-response","18","333866","0.0-8.0-0.0-0.0","P_75b53fc0f584fae0d3381340a9067791ba350bcc663cc3ca4eee000dd7215a48","697c608fb23a18f07d093e5b","697c610682796cf0d2f48a45","6","60","1200","12","816","","<div class=""feedback-message""></div><div class=""stimulus-container""><div class=""position-wrapper""><div class=""key-label"">S</div><div class=""position-box "" data-position=""0""></div></div><div class=""position-wrapper""><div class=""key-label"">D</div><div class=""position-box active"" data-position=""1""></div></div><div class=""position-wrapper""><div class=""key-label"">F</div><div class=""position-box "" data-position=""2""></div></div><div class=""position-wrapper""><div class=""key-label"">J</div><div class=""position-box "" data-position=""3""></div></div><div class=""position-wrapper""><div class=""key-label"">K</div><div class=""position-box "" data-position=""4""></div></div><div class=""position-wrapper""><div class=""key-label"">L</div><div class=""position-box "" data-position=""5""></div></div></div><div class=""finger-diagram-container"">
			<img src=""assets/finger-diagrams/finger-diagram-6pos.png"" alt=""Finger position guide"" class=""finger-diagram"" />
		</div>","d","1","d","0.09237731181353705","36.016985194271136","true","","","","",""
"","","","","","practice","feedback","html-keyboard-response","19","334074","0.0-8.0-0.0-1.0","P_75b53fc0f584fae0d3381340a9067791ba350bcc663cc3ca4eee000dd7215a48","697c608fb23a18f07d093e5b","697c610682796cf0d2f48a45","6","60","1200","12","null","","<div class=""feedback-message""><div class=""feedback-correct"">✓</div></div><div class=""stimulus-container""><div class=""position-wrapper""><div class=""key-label"">S</div><div class=""position-box "" data-position=""0""></div></div><div class=""position-wrapper""><div class=""key-label"">D</div><div class=""position-box active"" data-position=""1""></div></div><div class=""position-wrapper""><div class=""key-label"">F</div><div class=""position-box "" data-position=""2""></div></div><div class=""position-wrapper""><div class=""key-label"">J</div><div class=""position-box "" data-position=""3""></div></div><div class=""position-wrapper""><div class=""key-label"">K</div><div class=""position-box "" data-position=""4""></div></div><div class=""position-wrapper""><div class=""key-label"">L</div><div class=""position-box "" data-position=""5""></div></div></div><div class=""finger-diagram-container"">
			<img src=""assets/finger-diagrams/finger-diagram-6pos.png"" alt=""Finger position guide"" class=""finger-diagram"" />
		</div>","null","","","","","","","","","",""
"","","","","","practice","rsi","html-keyboard-response","20","334195","0.0-8.0-1.0","P_75b53fc0f584fae0d3381340a9067791ba350bcc663cc3ca4eee000dd7215a48","697c608fb23a18f07d093e5b","697c610682796cf0d2f48a45","6","60","1200","12","null","","<div class=""feedback-message""></div><div class=""stimulus-container""><div class=""position-wrapper""><div class=""key-label"">S</div><div class=""position-box "" data-position=""0""></div></div><div class=""position-wrapper""><div class=""key-label"">D</div><div class=""position-box "" data-position=""1""></div></div><div class=""position-wrapper""><div class=""key-label"">F</div><div class=""position-box "" data-position=""2""></div></div><div class=""position-wrapper""><div class=""key-label"">J</div><div class=""position-box "" data-position=""3""></div></div><div class=""position-wrapper""><div class=""key-label"">K</div><div class=""position-box "" data-position=""4""></div></div><div class=""position-wrapper""><div class=""key-label"">L</div><div class=""position-box "" data-position=""5""></div></div></div><div class=""finger-diagram-container"">
			<img src=""assets/finger-diagrams/finger-diagram-6pos.png"" alt=""Finger position guide"" class=""finger-diagram"" />
		</div>","null","","","","","","","","","",""
"","","","","","practice","stimulus","html-keyboard-response","21","335155","0.0-9.0-0.0-0.0","P_75b53fc0f584fae0d3381340a9067791ba350bcc663cc3ca4eee000dd7215a48","697c608fb23a18f07d093e5b","697c610682796cf0d2f48a45","6","60","1200","12","959","","<div class=""feedback-message""></div><div class=""stimulus-container""><div class=""position-wrapper""><div class=""key-label"">S</div><div class=""position-box "" data-position=""0""></div></div><div class=""position-wrapper""><div class=""key-label"">D</div><div class=""position-box "" data-position=""1""></div></div><div class=""position-wrapper""><div class=""key-label"">F</div><div class=""position-box "" data-position=""2""></div></div><div class=""position-wrapper""><div class=""key-label"">J</div><div class=""position-box "" data-position=""3""></div></div><div class=""position-wrapper""><div class=""key-label"">K</div><div class=""position-box "" data-position=""4""></div></div><div class=""position-wrapper""><div class=""key-label"">L</div><div class=""position-box active"" data-position=""5""></div></div></div><div class=""finger-diagram-container"">
			<img src=""assets/finger-diagrams/finger-diagram-6pos.png"" alt=""Finger position guide"" class=""finger-diagram"" />
		</div>","l","5","l","1.9197818344737423","35.90835755421978","true","","","","",""
"","","","","","practice","feedback","html-keyboard-response","22","335362","0.0-9.0-0.0-1.0","P_75b53fc0f584fae0d3381340a9067791ba350bcc663cc3ca4eee000dd7215a48","697c608fb23a18f07d093e5b","697c610682796cf0d2f48a45","6","60","1200","12","null","","<div class=""feedback-message""><div class=""feedback-correct"">✓</div></div><div class=""stimulus-container""><div class=""position-wrapper""><div class=""key-label"">S</div><div class=""position-box "" data-position=""0""></div></div><div class=""position-wrapper""><div class=""key-label"">D</div><div class=""position-box "" data-position=""1""></div></div><div class=""position-wrapper""><div class=""key-label"">F</div><div class=""position-box "" data-position=""2""></div></div><div class=""position-wrapper""><div class=""key-label"">J</div><div class=""position-box "" data-position=""3""></div></div><div class=""position-wrapper""><div class=""key-label"">K</div><div class=""position-box "" data-position=""4""></div></div><div class=""position-wrapper""><div class=""key-label"">L</div><div class=""position-box active"" data-position=""5""></div></div></div><div class=""finger-diagram-container"">
			<img src=""assets/finger-diagrams/finger-diagram-6pos.png"" alt=""Finger position guide"" class=""finger-diagram"" />
		</div>","null","","","","","","","","","",""
"","","","","","practice","rsi","html-keyboard-response","23","335490","0.0-9.0-1.0","P_75b53fc0f584fae0d3381340a9067791ba350bcc663cc3ca4eee000dd7215a48","697c608fb23a18f07d093e5b","697c610682796cf0d2f48a45","6","60","1200","12","null","","<div class=""feedback-message""></div><div class=""stimulus-container""><div class=""position-wrapper""><div class=""key-label"">S</div><div class=""position-box "" data-position=""0""></div></div><div class=""position-wrapper""><div class=""key-label"">D</div><div class=""position-box "" data-position=""1""></div></div><div class=""position-wrapper""><div class=""key-label"">F</div><div class=""position-box "" data-position=""2""></div></div><div class=""position-wrapper""><div class=""key-label"">J</div><div class=""position-box "" data-position=""3""></div></div><div class=""position-wrapper""><div class=""key-label"">K</div><div class=""position-box "" data-position=""4""></div></div><div class=""position-wrapper""><div class=""key-label"">L</div><div class=""position-box "" data-position=""5""></div></div></div><div class=""finger-diagram-container"">
			<img src=""assets/finger-diagrams/finger-diagram-6pos.png"" alt=""Finger position guide"" class=""finger-diagram"" />
		</div>","null","","","","","","","","","",""
"","","","","","practice","stimulus","html-keyboard-response","24","336864","0.0-10.0-0.0-0.0","P_75b53fc0f584fae0d3381340a9067791ba350bcc663cc3ca4eee000dd7215a48","697c608fb23a18f07d093e5b","697c610682796cf0d2f48a45","6","60","1200","12","1371","","<div class=""feedback-message""></div><div class=""stimulus-container""><div class=""position-wrapper""><div class=""key-label"">S</div><div class=""position-box "" data-position=""0""></div></div><div class=""position-wrapper""><div class=""key-label"">D</div><div class=""position-box "" data-position=""1""></div></div><div class=""position-wrapper""><div class=""key-label"">F</div><div class=""position-box "" data-position=""2""></div></div><div class=""position-wrapper""><div class=""key-label"">J</div><div class=""position-box active"" data-position=""3""></div></div><div class=""position-wrapper""><div class=""key-label"">K</div><div class=""position-box "" data-position=""4""></div></div><div class=""position-wrapper""><div class=""key-label"">L</div><div class=""position-box "" data-position=""5""></div></div></div><div class=""finger-diagram-container"">
			<img src=""assets/finger-diagrams/finger-diagram-6pos.png"" alt=""Finger position guide"" class=""finger-diagram"" />
		</div>","j","3","j","1.7164586615480486","1.9047769601464493","true","","","","",""
"","","","","","practice","feedback","html-keyboard-response","25","337080","0.0-10.0-0.0-1.0","P_75b53fc0f584fae0d3381340a9067791ba350bcc663cc3ca4eee000dd7215a48","697c608fb23a18f07d093e5b","697c610682796cf0d2f48a45","6","60","1200","12","null","","<div class=""feedback-message""><div class=""feedback-correct"">✓</div></div><div class=""stimulus-container""><div class=""position-wrapper""><div class=""key-label"">S</div><div class=""position-box "" data-position=""0""></div></div><div class=""position-wrapper""><div class=""key-label"">D</div><div class=""position-box "" data-position=""1""></div></div><div class=""position-wrapper""><div class=""key-label"">F</div><div class=""position-box "" data-position=""2""></div></div><div class=""position-wrapper""><div class=""key-label"">J</div><div class=""position-box active"" data-position=""3""></div></div><div class=""position-wrapper""><div class=""key-label"">K</div><div class=""position-box "" data-position=""4""></div></div><div class=""position-wrapper""><div class=""key-label"">L</div><div class=""position-box "" data-position=""5""></div></div></div><div class=""finger-diagram-container"">
			<img src=""assets/finger-diagrams/finger-diagram-6pos.png"" alt=""Finger position guide"" class=""finger-diagram"" />
		</div>","null","","","","","","","","","",""
"","","","","","practice","rsi","html-keyboard-response","26","337210","0.0-10.0-1.0","P_75b53fc0f584fae0d3381340a9067791ba350bcc663cc3ca4eee000dd7215a48","697c608fb23a18f07d093e5b","697c610682796cf0d2f48a45","6","60","1200","12","null","","<div class=""feedback-message""></div><div class=""stimulus-container""><div class=""position-wrapper""><div class=""key-label"">S</div><div class=""position-box "" data-position=""0""></div></div><div class=""position-wrapper""><div class=""key-label"">D</div><div class=""position-box "" data-position=""1""></div></div><div class=""position-wrapper""><div class=""key-label"">F</div><div class=""position-box "" data-position=""2""></div></div><div class=""position-wrapper""><div class=""key-label"">J</div><div class=""position-box "" data-position=""3""></div></div><div class=""position-wrapper""><div class=""key-label"">K</div><div class=""position-box "" data-position=""4""></div></div><div class=""position-wrapper""><div class=""key-label"">L</div><div class=""position-box "" data-position=""5""></div></div></div><div class=""finger-diagram-container"">
			<img src=""assets/finger-diagrams/finger-diagram-6pos.png"" alt=""Finger position guide"" class=""finger-diagram"" />
		</div>","null","","","","","","","","","",""
"","","","","","practice","stimulus","html-keyboard-response","27","338415","0.0-11.0-0.0-0.0","P_75b53fc0f584fae0d3381340a9067791ba350bcc663cc3ca4eee000dd7215a48","697c608fb23a18f07d093e5b","697c610682796cf0d2f48a45","6","60","1200","12","1204","","<div class=""feedback-message""></div><div class=""stimulus-container""><div class=""position-wrapper""><div class=""key-label"">S</div><div class=""position-box "" data-position=""0""></div></div><div class=""position-wrapper""><div class=""key-label"">D</div><div class=""position-box active"" data-position=""1""></div></div><div class=""position-wrapper""><div class=""key-label"">F</div><div class=""position-box "" data-position=""2""></div></div><div class=""position-wrapper""><div class=""key-label"">J</div><div class=""position-box "" data-position=""3""></div></div><div class=""position-wrapper""><div class=""key-label"">K</div><div class=""position-box "" data-position=""4""></div></div><div class=""position-wrapper""><div class=""key-label"">L</div><div class=""position-box "" data-position=""5""></div></div></div><div class=""finger-diagram-container"">
			<img src=""assets/finger-diagrams/finger-diagram-6pos.png"" alt=""Finger position guide"" class=""finger-diagram"" />
		</div>","d","1","d","0.09237731181353705","36.01618095411356","true","","","","",""
"","","","","","practice","feedback","html-keyboard-response","28","338629","0.0-11.0-0.0-1.0","P_75b53fc0f584fae0d3381340a9067791ba350bcc663cc3ca4eee000dd7215a48","697c608fb23a18f07d093e5b","697c610682796cf0d2f48a45","6","60","1200","12","null","","<div class=""feedback-message""><div class=""feedback-correct"">✓</div></div><div class=""stimulus-container""><div class=""position-wrapper""><div class=""key-label"">S</div><div class=""position-box "" data-position=""0""></div></div><div class=""position-wrapper""><div class=""key-label"">D</div><div class=""position-box active"" data-position=""1""></div></div><div class=""position-wrapper""><div class=""key-label"">F</div><div class=""position-box "" data-position=""2""></div></div><div class=""position-wrapper""><div class=""key-label"">J</div><div class=""position-box "" data-position=""3""></div></div><div class=""position-wrapper""><div class=""key-label"">K</div><div class=""position-box "" data-position=""4""></div></div><div class=""position-wrapper""><div class=""key-label"">L</div><div class=""position-box "" data-position=""5""></div></div></div><div class=""finger-diagram-container"">
			<img src=""assets/finger-diagrams/finger-diagram-6pos.png"" alt=""Finger position guide"" class=""finger-diagram"" />
		</div>","null","","","","","","","","","",""
"","","","","","practice","rsi","html-keyboard-response","29","338759","0.0-11.0-1.0","P_75b53fc0f584fae0d3381340a9067791ba350bcc663cc3ca4eee000dd7215a48","697c608fb23a18f07d093e5b","697c610682796cf0d2f48a45","6","60","1200","12","null","","<div class=""feedback-message""></div><div class=""stimulus-container""><div class=""position-wrapper""><div class=""key-label"">S</div><div class=""position-box "" data-position=""0""></div></div><div class=""position-wrapper""><div class=""key-label"">D</div><div class=""position-box "" data-position=""1""></div></div><div class=""position-wrapper""><div class=""key-label"">F</div><div class=""position-box "" data-position=""2""></div></div><div class=""position-wrapper""><div class=""key-label"">J</div><div class=""position-box "" data-position=""3""></div></div><div class=""position-wrapper""><div class=""key-label"">K</div><div class=""position-box "" data-position=""4""></div></div><div class=""position-wrapper""><div class=""key-label"">L</div><div class=""position-box "" data-position=""5""></div></div></div><div class=""finger-diagram-container"">
			<img src=""assets/finger-diagrams/finger-diagram-6pos.png"" alt=""Finger position guide"" class=""finger-diagram"" />
		</div>","null","","","","","","","","","",""
"","","","","","practice","stimulus","html-keyboard-response","30","340186","0.0-12.0-0.0-0.0","P_75b53fc0f584fae0d3381340a9067791ba350bcc663cc3ca4eee000dd7215a48","697c608fb23a18f07d093e5b","697c610682796cf0d2f48a45","6","60","1200","12","1426","","<div class=""feedback-message""></div><div class=""stimulus-container""><div class=""position-wrapper""><div class=""key-label"">S</div><div class=""position-box "" data-position=""0""></div></div><div class=""position-wrapper""><div class=""key-label"">D</div><div class=""position-box "" data-position=""1""></div></div><div class=""position-wrapper""><div class=""key-label"">F</div><div class=""position-box active"" data-position=""2""></div></div><div class=""position-wrapper""><div class=""key-label"">J</div><div class=""position-box "" data-position=""3""></div></div><div class=""position-wrapper""><div class=""key-label"">K</div><div class=""position-box "" data-position=""4""></div></div><div class=""position-wrapper""><div class=""key-label"">L</div><div class=""position-box "" data-position=""5""></div></div></div><div class=""finger-diagram-container"">
			<img src=""assets/finger-diagrams/finger-diagram-6pos.png"" alt=""Finger position guide"" class=""finger-diagram"" />
		</div>","f","2","f","1.6016287006430232","6.407472371591219","true","","","","",""
"","","","","","practice","feedback","html-keyboard-response","31","340392","0.0-12.0-0.0-1.0","P_75b53fc0f584fae0d3381340a9067791ba350bcc663cc3ca4eee000dd7215a48","697c608fb23a18f07d093e5b","697c610682796cf0d2f48a45","6","60","1200","12","null","","<div class=""feedback-message""><div class=""feedback-correct"">✓</div></div><div class=""stimulus-container""><div class=""position-wrapper""><div class=""key-label"">S</div><div class=""position-box "" data-position=""0""></div></div><div class=""position-wrapper""><div class=""key-label"">D</div><div class=""position-box "" data-position=""1""></div></div><div class=""position-wrapper""><div class=""key-label"">F</div><div class=""position-box active"" data-position=""2""></div></div><div class=""position-wrapper""><div class=""key-label"">J</div><div class=""position-box "" data-position=""3""></div></div><div class=""position-wrapper""><div class=""key-label"">K</div><div class=""position-box "" data-position=""4""></div></div><div class=""position-wrapper""><div class=""key-label"">L</div><div class=""position-box "" data-position=""5""></div></div></div><div class=""finger-diagram-container"">
			<img src=""assets/finger-diagrams/finger-diagram-6pos.png"" alt=""Finger position guide"" class=""finger-diagram"" />
		</div>","null","","","","","","","","","",""
"","","","","","practice","rsi","html-keyboard-response","32","340528","0.0-12.0-1.0","P_75b53fc0f584fae0d3381340a9067791ba350bcc663cc3ca4eee000dd7215a48","697c608fb23a18f07d093e5b","697c610682796cf0d2f48a45","6","60","1200","12","null","","<div class=""feedback-message""></div><div class=""stimulus-container""><div class=""position-wrapper""><div class=""key-label"">S</div><div class=""position-box "" data-position=""0""></div></div><div class=""position-wrapper""><div class=""key-label"">D</div><div class=""position-box "" data-position=""1""></div></div><div class=""position-wrapper""><div class=""key-label"">F</div><div class=""position-box "" data-position=""2""></div></div><div class=""position-wrapper""><div class=""key-label"">J</div><div class=""position-box "" data-position=""3""></div></div><div class=""position-wrapper""><div class=""key-label"">K</div><div class=""position-box "" data-position=""4""></div></div><div class=""position-wrapper""><div class=""key-label"">L</div><div class=""position-box "" data-position=""5""></div></div></div><div class=""finger-diagram-container"">
			<img src=""assets/finger-diagrams/finger-diagram-6pos.png"" alt=""Finger position guide"" class=""finger-diagram"" />
		</div>","null","","","","","","","","","",""
"","","","","","practice","stimulus","html-keyboard-response","33","341400","0.0-13.0-0.0-0.0","P_75b53fc0f584fae0d3381340a9067791ba350bcc663cc3ca4eee000dd7215a48","697c608fb23a18f07d093e5b","697c610682796cf0d2f48a45","6","60","1200","12","870","","<div class=""feedback-message""></div><div class=""stimulus-container""><div class=""position-wrapper""><div class=""key-label"">S</div><div class=""position-box "" data-position=""0""></div></div><div class=""position-wrapper""><div class=""key-label"">D</div><div class=""position-box "" data-position=""1""></div></div><div class=""position-wrapper""><div class=""key-label"">F</div><div class=""position-box "" data-position=""2""></div></div><div class=""position-wrapper""><div class=""key-label"">J</div><div class=""position-box "" data-position=""3""></div></div><div class=""position-wrapper""><div class=""key-label"">K</div><div class=""position-box "" data-position=""4""></div></div><div class=""position-wrapper""><div class=""key-label"">L</div><div class=""position-box active"" data-position=""5""></div></div></div><div class=""finger-diagram-container"">
			<img src=""assets/finger-diagrams/finger-diagram-6pos.png"" alt=""Finger position guide"" class=""finger-diagram"" />
		</div>","l","5","l","1.9197818344737423","7.7144602909047615","true","","","","",""
"","","","","","practice","feedback","html-keyboard-response","34","341610","0.0-13.0-0.0-1.0","P_75b53fc0f584fae0d3381340a9067791ba350bcc663cc3ca4eee000dd7215a48","697c608fb23a18f07d093e5b","697c610682796cf0d2f48a45","6","60","1200","12","null","","<div class=""feedback-message""><div class=""feedback-correct"">✓</div></div><div class=""stimulus-container""><div class=""position-wrapper""><div class=""key-label"">S</div><div class=""position-box "" data-position=""0""></div></div><div class=""position-wrapper""><div class=""key-label"">D</div><div class=""position-box "" data-position=""1""></div></div><div class=""position-wrapper""><div class=""key-label"">F</div><div class=""position-box "" data-position=""2""></div></div><div class=""position-wrapper""><div class=""key-label"">J</div><div class=""position-box "" data-position=""3""></div></div><div class=""position-wrapper""><div class=""key-label"">K</div><div class=""position-box "" data-position=""4""></div></div><div class=""position-wrapper""><div class=""key-label"">L</div><div class=""position-box active"" data-position=""5""></div></div></div><div class=""finger-diagram-container"">
			<img src=""assets/finger-diagrams/finger-diagram-6pos.png"" alt=""Finger position guide"" class=""finger-diagram"" />
		</div>","null","","","","","","","","","",""
"","","","","","practice","rsi","html-keyboard-response","35","341748","0.0-13.0-1.0","P_75b53fc0f584fae0d3381340a9067791ba350bcc663cc3ca4eee000dd7215a48","697c608fb23a18f07d093e5b","697c610682796cf0d2f48a45","6","60","1200","12","null","","<div class=""feedback-message""></div><div class=""stimulus-container""><div class=""position-wrapper""><div class=""key-label"">S</div><div class=""position-box "" data-position=""0""></div></div><div class=""position-wrapper""><div class=""key-label"">D</div><div class=""position-box "" data-position=""1""></div></div><div class=""position-wrapper""><div class=""key-label"">F</div><div class=""position-box "" data-position=""2""></div></div><div class=""position-wrapper""><div class=""key-label"">J</div><div class=""position-box "" data-position=""3""></div></div><div class=""position-wrapper""><div class=""key-label"">K</div><div class=""position-box "" data-position=""4""></div></div><div class=""position-wrapper""><div class=""key-label"">L</div><div class=""position-box "" data-position=""5""></div></div></div><div class=""finger-diagram-container"">
			<img src=""assets/finger-diagrams/finger-diagram-6pos.png"" alt=""Finger position guide"" class=""finger-diagram"" />
		</div>","null","","","","","","","","","",""
"","","","","","practice","stimulus","html-keyboard-response","36","343049","0.0-14.0-0.0-0.0","P_75b53fc0f584fae0d3381340a9067791ba350bcc663cc3ca4eee000dd7215a48","697c608fb23a18f07d093e5b","697c610682796cf0d2f48a45","6","60","1200","12","1299","","<div class=""feedback-message""></div><div class=""stimulus-container""><div class=""position-wrapper""><div class=""key-label"">S</div><div class=""position-box active"" data-position=""0""></div></div><div class=""position-wrapper""><div class=""key-label"">D</div><div class=""position-box "" data-position=""1""></div></div><div class=""position-wrapper""><div class=""key-label"">F</div><div class=""position-box "" data-position=""2""></div></div><div class=""position-wrapper""><div class=""key-label"">J</div><div class=""position-box "" data-position=""3""></div></div><div class=""position-wrapper""><div class=""key-label"">K</div><div class=""position-box "" data-position=""4""></div></div><div class=""position-wrapper""><div class=""key-label"">L</div><div class=""position-box "" data-position=""5""></div></div></div><div class=""finger-diagram-container"">
			<img src=""assets/finger-diagrams/finger-diagram-6pos.png"" alt=""Finger position guide"" class=""finger-diagram"" />
		</div>","s","0","s","0.6265709654819551","1.4191265827700734","true","","","","",""
"","","","","","practice","feedback","html-keyboard-response","37","343258","0.0-14.0-0.0-1.0","P_75b53fc0f584fae0d3381340a9067791ba350bcc663cc3ca4eee000dd7215a48","697c608fb23a18f07d093e5b","697c610682796cf0d2f48a45","6","60","1200","12","null","","<div class=""feedback-message""><div class=""feedback-correct"">✓</div></div><div class=""stimulus-container""><div class=""position-wrapper""><div class=""key-label"">S</div><div class=""position-box active"" data-position=""0""></div></div><div class=""position-wrapper""><div class=""key-label"">D</div><div class=""position-box "" data-position=""1""></div></div><div class=""position-wrapper""><div class=""key-label"">F</div><div class=""position-box "" data-position=""2""></div></div><div class=""position-wrapper""><div class=""key-label"">J</div><div class=""position-box "" data-position=""3""></div></div><div class=""position-wrapper""><div class=""key-label"">K</div><div class=""position-box "" data-position=""4""></div></div><div class=""position-wrapper""><div class=""key-label"">L</div><div class=""position-box "" data-position=""5""></div></div></div><div class=""finger-diagram-container"">
			<img src=""assets/finger-diagrams/finger-diagram-6pos.png"" alt=""Finger position guide"" class=""finger-diagram"" />
		</div>","null","","","","","","","","","",""
"","","","","","practice","rsi","html-keyboard-response","38","343381","0.0-14.0-1.0","P_75b53fc0f584fae0d3381340a9067791ba350bcc663cc3ca4eee000dd7215a48","697c608fb23a18f07d093e5b","697c610682796cf0d2f48a45","6","60","1200","12","null","","<div class=""feedback-message""></div><div class=""stimulus-container""><div class=""position-wrapper""><div class=""key-label"">S</div><div class=""position-box "" data-position=""0""></div></div><div class=""position-wrapper""><div class=""key-label"">D</div><div class=""position-box "" data-position=""1""></div></div><div class=""position-wrapper""><div class=""key-label"">F</div><div class=""position-box "" data-position=""2""></div></div><div class=""position-wrapper""><div class=""key-label"">J</div><div class=""position-box "" data-position=""3""></div></div><div class=""position-wrapper""><div class=""key-label"">K</div><div class=""position-box "" data-position=""4""></div></div><div class=""position-wrapper""><div class=""key-label"">L</div><div class=""position-box "" data-position=""5""></div></div></div><div class=""finger-diagram-container"">
			<img src=""assets/finger-diagrams/finger-diagram-6pos.png"" alt=""Finger position guide"" class=""finger-diagram"" />
		</div>","null","","","","","","","","","",""
"","","","","","practice","stimulus","html-keyboard-response","39","345010","0.0-15.0-0.0-0.0","P_75b53fc0f584fae0d3381340a9067791ba350bcc663cc3ca4eee000dd7215a48","697c608fb23a18f07d093e5b","697c610682796cf0d2f48a45","6","60","1200","12","1627","","<div class=""feedback-message""></div><div class=""stimulus-container""><div class=""position-wrapper""><div class=""key-label"">S</div><div class=""position-box "" data-position=""0""></div></div><div class=""position-wrapper""><div class=""key-label"">D</div><div class=""position-box "" data-position=""1""></div></div><div class=""position-wrapper""><div class=""key-label"">F</div><div class=""position-box "" data-position=""2""></div></div><div class=""position-wrapper""><div class=""key-label"">J</div><div class=""position-box "" data-position=""3""></div></div><div class=""position-wrapper""><div class=""key-label"">K</div><div class=""position-box active"" data-position=""4""></div></div><div class=""position-wrapper""><div class=""key-label"">L</div><div class=""position-box "" data-position=""5""></div></div></div><div class=""finger-diagram-container"">
			<img src=""assets/finger-diagrams/finger-diagram-6pos.png"" alt=""Finger position guide"" class=""finger-diagram"" />
		</div>","k","4","k","1.7163490803009984","null","true","","","","",""
"","","","","","practice","feedback","html-keyboard-response","40","345216","0.0-15.0-0.0-1.0","P_75b53fc0f584fae0d3381340a9067791ba350bcc663cc3ca4eee000dd7215a48","697c608fb23a18f07d093e5b","697c610682796cf0d2f48a45","6","60","1200","12","null","","<div class=""feedback-message""><div class=""feedback-correct"">✓</div></div><div class=""stimulus-container""><div class=""position-wrapper""><div class=""key-label"">S</div><div class=""position-box "" data-position=""0""></div></div><div class=""position-wrapper""><div class=""key-label"">D</div><div class=""position-box "" data-position=""1""></div></div><div class=""position-wrapper""><div class=""key-label"">F</div><div class=""position-box "" data-position=""2""></div></div><div class=""position-wrapper""><div class=""key-label"">J</div><div class=""position-box "" data-position=""3""></div></div><div class=""position-wrapper""><div class=""key-label"">K</div><div class=""position-box active"" data-position=""4""></div></div><div class=""position-wrapper""><div class=""key-label"">L</div><div class=""position-box "" data-position=""5""></div></div></div><div class=""finger-diagram-container"">
			<img src=""assets/finger-diagrams/finger-diagram-6pos.png"" alt=""Finger position guide"" class=""finger-diagram"" />
		</div>","null","","","","","","","","","",""
"","","","","","practice","rsi","html-keyboard-response","41","345347","0.0-15.0-1.0","P_75b53fc0f584fae0d3381340a9067791ba350bcc663cc3ca4eee000dd7215a48","697c608fb23a18f07d093e5b","697c610682796cf0d2f48a45","6","60","1200","12","null","","<div class=""feedback-message""></div><div class=""stimulus-container""><div class=""position-wrapper""><div class=""key-label"">S</div><div class=""position-box "" data-position=""0""></div></div><div class=""position-wrapper""><div class=""key-label"">D</div><div class=""position-box "" data-position=""1""></div></div><div class=""position-wrapper""><div class=""key-label"">F</div><div class=""position-box "" data-position=""2""></div></div><div class=""position-wrapper""><div class=""key-label"">J</div><div class=""position-box "" data-position=""3""></div></div><div class=""position-wrapper""><div class=""key-label"">K</div><div class=""position-box "" data-position=""4""></div></div><div class=""position-wrapper""><div class=""key-label"">L</div><div class=""position-box "" data-position=""5""></div></div></div><div class=""finger-diagram-container"">
			<img src=""assets/finger-diagrams/finger-diagram-6pos.png"" alt=""Finger position guide"" class=""finger-diagram"" />
		</div>","null","","","","","","","","","",""
"","","","","","practice","practice_end","html-keyboard-response","42","362321","0.0-16.0","P_75b53fc0f584fae0d3381340a9067791ba350bcc663cc3ca4eee000dd7215a48","697c608fb23a18f07d093e5b","697c610682796cf0d2f48a45","6","60","1200","12","16972","","
                <div class=""instruction-text"">
                    <h2>Practice Complete!</h2>
                    <p>You got 11 out of 12 trials correct.</p>
                    <p>Remember: Respond as quickly and accurately as possible.</p>
					<p>Now, you will complete 20 blocks of 60 trials.</p>
                    <p>Between blocks, you will get a break to rest.</p>
                    <p>The entire task takes about 26 minutes.</p>
                    <p><strong>The main task will now begin. Press the spacebar to start.</strong></p>
                </div>
            "," ","","","","","","","","","",""
"","","","","","main","stimulus","html-keyboard-response","43","365905","0.0-17.0-0.0-0.0","P_75b53fc0f584fae0d3381340a9067791ba350bcc663cc3ca4eee000dd7215a48","697c608fb23a18f07d093e5b","697c610682796cf0d2f48a45","6","60","1200","12","3583","","<div class=""feedback-message""></div><div class=""stimulus-container""><div class=""position-wrapper""><div class=""position-box "" data-position=""0""></div></div><div class=""position-wrapper""><div class=""position-box "" data-position=""1""></div></div><div class=""position-wrapper""><div class=""position-box active"" data-position=""2""></div></div><div class=""position-wrapper""><div class=""position-box "" data-position=""3""></div></div><div class=""position-wrapper""><div class=""position-box "" data-position=""4""></div></div><div class=""position-wrapper""><div class=""position-box "" data-position=""5""></div></div></div><div class=""finger-diagram-container"">
			<img src=""assets/finger-diagrams/finger-diagram-6pos.png"" alt=""Finger position guide"" class=""finger-diagram"" />
		</div>","f","2","f","1.6016287006430232","null","true","0","0","0","",""
"","","","","","main","feedback","html-keyboard-response","44","366109","0.0-17.0-0.0-1.0","P_75b53fc0f584fae0d3381340a9067791ba350bcc663cc3ca4eee000dd7215a48","697c608fb23a18f07d093e5b","697c610682796cf0d2f48a45","6","60","1200","12","null","","<div class=""feedback-message""><div class=""feedback-correct"">✓</div></div><div class=""stimulus-container""><div class=""position-wrapper""><div class=""position-box "" data-position=""0""></div></div><div class=""position-wrapper""><div class=""position-box "" data-position=""1""></div></div><div class=""position-wrapper""><div class=""position-box active"" data-position=""2""></div></div><div class=""position-wrapper""><div class=""position-box "" data-position=""3""></div></div><div class=""position-wrapper""><div class=""position-box "" data-position=""4""></div></div><div class=""position-wrapper""><div class=""position-box "" data-position=""5""></div></div></div><div class=""finger-diagram-container"">
			<img src=""assets/finger-diagrams/finger-diagram-6pos.png"" alt=""Finger position guide"" class=""finger-diagram"" />
		</div>","null","","","","","","","","","",""
"","","","","","main","rsi","html-keyboard-response","45","366233","0.0-17.0-1.0","P_75b53fc0f584fae0d3381340a9067791ba350bcc663cc3ca4eee000dd7215a48","697c608fb23a18f07d093e5b","697c610682796cf0d2f48a45","6","60","1200","12","null","","<div class=""feedback-message""></div><div class=""stimulus-container""><div class=""position-wrapper""><div class=""position-box "" data-position=""0""></div></div><div class=""position-wrapper""><div class=""position-box "" data-position=""1""></div></div><div class=""position-wrapper""><div class=""position-box "" data-position=""2""></div></div><div class=""position-wrapper""><div class=""position-box "" data-position=""3""></div></div><div class=""position-wrapper""><div class=""position-box "" data-position=""4""></div></div><div class=""position-wrapper""><div class=""position-box "" data-position=""5""></div></div></div><div class=""finger-diagram-container"">
			<img src=""assets/finger-diagrams/finger-diagram-6pos.png"" alt=""Finger position guide"" class=""finger-diagram"" />
		</div>","null","","","","","","","","","",""
"","","","","","main","stimulus","html-keyboard-response","46","367178","0.0-18.0-0.0-0.0","P_75b53fc0f584fae0d3381340a9067791ba350bcc663cc3ca4eee000dd7215a48","697c608fb23a18f07d093e5b","697c610682796cf0d2f48a45","6","60","1200","12","944","","<div class=""feedback-message""></div><div class=""stimulus-container""><div class=""position-wrapper""><div class=""position-box active"" data-position=""0""></div></div><div class=""position-wrapper""><div class=""position-box "" data-position=""1""></div></div><div class=""position-wrapper""><div class=""position-box "" data-position=""2""></div></div><div class=""position-wrapper""><div class=""position-box "" data-position=""3""></div></div><div class=""position-wrapper""><div class=""position-box "" data-position=""4""></div></div><div class=""position-wrapper""><div class=""position-box "" data-position=""5""></div></div></div><div class=""finger-diagram-container"">
			<img src=""assets/finger-diagrams/finger-diagram-6pos.png"" alt=""Finger position guide"" class=""finger-diagram"" />
		</div>","s","0","s","0.6265709654819551","1.0125719939883875","true","0","1","1","",""
"","","","","","main","feedback","html-keyboard-response","47","367385","0.0-18.0-0.0-1.0","P_75b53fc0f584fae0d3381340a9067791ba350bcc663cc3ca4eee000dd7215a48","697c608fb23a18f07d093e5b","697c610682796cf0d2f48a45","6","60","1200","12","null","","<div class=""feedback-message""><div class=""feedback-correct"">✓</div></div><div class=""stimulus-container""><div class=""position-wrapper""><div class=""position-box active"" data-position=""0""></div></div><div class=""position-wrapper""><div class=""position-box "" data-position=""1""></div></div><div class=""position-wrapper""><div class=""position-box "" data-position=""2""></div></div><div class=""position-wrapper""><div class=""position-box "" data-position=""3""></div></div><div class=""position-wrapper""><div class=""position-box "" data-position=""4""></div></div><div class=""position-wrapper""><div class=""position-box "" data-position=""5""></div></div></div><div class=""finger-diagram-container"">
			<img src=""assets/finger-diagrams/finger-diagram-6pos.png"" alt=""Finger position guide"" class=""finger-diagram"" />
		</div>","null","","","","","","","","","",""
"","","","","","main","rsi","html-keyboard-response","48","367515","0.0-18.0-1.0","P_75b53fc0f584fae0d3381340a9067791ba350bcc663cc3ca4eee000dd7215a48","697c608fb23a18f07d093e5b","697c610682796cf0d2f48a45","6","60","1200","12","null","","<div class=""feedback-message""></div><div class=""stimulus-container""><div class=""position-wrapper""><div class=""position-box "" data-position=""0""></div></div><div class=""position-wrapper""><div class=""position-box "" data-position=""1""></div></div><div class=""position-wrapper""><div class=""position-box "" data-position=""2""></div></div><div class=""position-wrapper""><div class=""position-box "" data-position=""3""></div></div><div class=""position-wrapper""><div class=""position-box "" data-position=""4""></div></div><div class=""position-wrapper""><div class=""position-box "" data-position=""5""></div></div></div><div class=""finger-diagram-container"">
			<img src=""assets/finger-diagrams/finger-diagram-6pos.png"" alt=""Finger position guide"" class=""finger-diagram"" />
		</div>","null","","","","","","","","","",""
"","","","","","main","stimulus","html-keyboard-response","49","368456","0.0-19.0-0.0-0.0","P_75b53fc0f584fae0d3381340a9067791ba350bcc663cc3ca4eee000dd7215a48","697c608fb23a18f07d093e5b","697c610682796cf0d2f48a45","6","60","1200","12","939","","<div class=""feedback-message""></div><div class=""stimulus-container""><div class=""position-wrapper""><div class=""position-box "" data-position=""0""></div></div><div class=""position-wrapper""><div class=""position-box active"" data-position=""1""></div></div><div class=""position-wrapper""><div class=""position-box "" data-position=""2""></div></div><div class=""position-wrapper""><div class=""position-box "" data-position=""3""></div></div><div class=""position-wrapper""><div class=""position-box "" data-position=""4""></div></div><div class=""position-wrapper""><div class=""position-box "" data-position=""5""></div></div></div><div class=""finger-diagram-container"">
			<img src=""assets/finger-diagrams/finger-diagram-6pos.png"" alt=""Finger position guide"" class=""finger-diagram"" />
		</div>","d","1","d","0.09237731181353705","0.22743527250800727","true","0","2","2","",""
"","","","","","main","feedback","html-keyboard-response","50","368664","0.0-19.0-0.0-1.0","P_75b53fc0f584fae0d3381340a9067791ba350bcc663cc3ca4eee000dd7215a48","697c608fb23a18f07d093e5b","697c610682796cf0d2f48a45","6","60","1200","12","null","","<div class=""feedback-message""><div class=""feedback-correct"">✓</div></div><div class=""stimulus-container""><div class=""position-wrapper""><div class=""position-box "" data-position=""0""></div></div><div class=""position-wrapper""><div class=""position-box active"" data-position=""1""></div></div><div class=""position-wrapper""><div class=""position-box "" data-position=""2""></div></div><div class=""position-wrapper""><div class=""position-box "" data-position=""3""></div></div><div class=""position-wrapper""><div class=""position-box "" data-position=""4""></div></div><div class=""position-wrapper""><div class=""position-box "" data-position=""5""></div></div></div><div class=""finger-diagram-container"">
			<img src=""assets/finger-diagrams/finger-diagram-6pos.png"" alt=""Finger position guide"" class=""finger-diagram"" />
		</div>","null","","","","","","","","","",""
"","","","","","main","rsi","html-keyboard-response","51","368788","0.0-19.0-1.0","P_75b53fc0f584fae0d3381340a9067791ba350bcc663cc3ca4eee000dd7215a48","697c608fb23a18f07d093e5b","697c610682796cf0d2f48a45","6","60","1200","12","null","","<div class=""feedback-message""></div><div class=""stimulus-container""><div class=""position-wrapper""><div class=""position-box "" data-position=""0""></div></div><div class=""position-wrapper""><div class=""position-box "" data-position=""1""></div></div><div class=""position-wrapper""><div class=""position-box "" data-position=""2""></div></div><div class=""position-wrapper""><div class=""position-box "" data-position=""3""></div></div><div class=""position-wrapper""><div class=""position-box "" data-position=""4""></div></div><div class=""position-wrapper""><div class=""position-box "" data-position=""5""></div></div></div><div class=""finger-diagram-container"">
			<img src=""assets/finger-diagrams/finger-diagram-6pos.png"" alt=""Finger position guide"" class=""finger-diagram"" />
		</div>","null","","","","","","","","","",""
"","","","","","main","stimulus","html-keyboard-response","52","370656","0.0-20.0-0.0-0.0","P_75b53fc0f584fae0d3381340a9067791ba350bcc663cc3ca4eee000dd7215a48","697c608fb23a18f07d093e5b","697c610682796cf0d2f48a45","6","60","1200","12","1867","","<div class=""feedback-message""></div><div class=""stimulus-container""><div class=""position-wrapper""><div class=""position-box "" data-position=""0""></div></div><div class=""position-wrapper""><div class=""position-box "" data-position=""1""></div></div><div class=""position-wrapper""><div class=""position-box "" data-position=""2""></div></div><div class=""position-wrapper""><div class=""position-box "" data-position=""3""></div></div><div class=""position-wrapper""><div class=""position-box active"" data-position=""4""></div></div><div class=""position-wrapper""><div class=""position-box "" data-position=""5""></div></div></div><div class=""finger-diagram-container"">
			<img src=""assets/finger-diagrams/finger-diagram-6pos.png"" alt=""Finger position guide"" class=""finger-diagram"" />
		</div>","k","4","k","1.7163490803009984","0.01709636891849747","true","0","3","3","",""
"","","","","","main","feedback","html-keyboard-response","53","370863","0.0-20.0-0.0-1.0","P_75b53fc0f584fae0d3381340a9067791ba350bcc663cc3ca4eee000dd7215a48","697c608fb23a18f07d093e5b","697c610682796cf0d2f48a45","6","60","1200","12","null","","<div class=""feedback-message""><div class=""feedback-correct"">✓</div></div><div class=""stimulus-container""><div class=""position-wrapper""><div class=""position-box "" data-position=""0""></div></div><div class=""position-wrapper""><div class=""position-box "" data-position=""1""></div></div><div class=""position-wrapper""><div class=""position-box "" data-position=""2""></div></div><div class=""position-wrapper""><div class=""position-box "" data-position=""3""></div></div><div class=""position-wrapper""><div class=""position-box active"" data-position=""4""></div></div><div class=""position-wrapper""><div class=""position-box "" data-position=""5""></div></div></div><div class=""finger-diagram-container"">
			<img src=""assets/finger-diagrams/finger-diagram-6pos.png"" alt=""Finger position guide"" class=""finger-diagram"" />
		</div>","null","","","","","","","","","",""
"","","","","","main","rsi","html-keyboard-response","54","370988","0.0-20.0-1.0","P_75b53fc0f584fae0d3381340a9067791ba350bcc663cc3ca4eee000dd7215a48","697c608fb23a18f07d093e5b","697c610682796cf0d2f48a45","6","60","1200","12","null","","<div class=""feedback-message""></div><div class=""stimulus-container""><div class=""position-wrapper""><div class=""position-box "" data-position=""0""></div></div><div class=""position-wrapper""><div class=""position-box "" data-position=""1""></div></div><div class=""position-wrapper""><div class=""position-box "" data-position=""2""></div></div><div class=""position-wrapper""><div class=""position-box "" data-position=""3""></div></div><div class=""position-wrapper""><div class=""position-box "" data-position=""4""></div></div><div class=""position-wrapper""><div class=""position-box "" data-position=""5""></div></div></div><div class=""finger-diagram-container"">
			<img src=""assets/finger-diagrams/finger-diagram-6pos.png"" alt=""Finger position guide"" class=""finger-diagram"" />
		</div>","null","","","","","","","","","",""
"","","","","","main","stimulus","html-keyboard-response","55","372901","0.0-21.0-0.0-0.0","P_75b53fc0f584fae0d3381340a9067791ba350bcc663cc3ca4eee000dd7215a48","697c608fb23a18f07d093e5b","697c610682796cf0d2f48a45","6","60","1200","12","1911","","<div class=""feedback-message""></div><div class=""stimulus-container""><div class=""position-wrapper""><div class=""position-box "" data-position=""0""></div></div><div class=""position-wrapper""><div class=""position-box "" data-position=""1""></div></div><div class=""position-wrapper""><div class=""position-box active"" data-position=""2""></div></div><div class=""position-wrapper""><div class=""position-box "" data-position=""3""></div></div><div class=""position-wrapper""><div class=""position-box "" data-position=""4""></div></div><div class=""position-wrapper""><div class=""position-box "" data-position=""5""></div></div></div><div class=""finger-diagram-container"">
			<img src=""assets/finger-diagrams/finger-diagram-6pos.png"" alt=""Finger position guide"" class=""finger-diagram"" />
		</div>","f","2","f","1.6016287006430232","2.2528020787541636","true","0","4","4","",""
"","","","","","main","feedback","html-keyboard-response","56","373109","0.0-21.0-0.0-1.0","P_75b53fc0f584fae0d3381340a9067791ba350bcc663cc3ca4eee000dd7215a48","697c608fb23a18f07d093e5b","697c610682796cf0d2f48a45","6","60","1200","12","null","","<div class=""feedback-message""><div class=""feedback-correct"">✓</div></div><div class=""stimulus-container""><div class=""position-wrapper""><div class=""position-box "" data-position=""0""></div></div><div class=""position-wrapper""><div class=""position-box "" data-position=""1""></div></div><div class=""position-wrapper""><div class=""position-box active"" data-position=""2""></div></div><div class=""position-wrapper""><div class=""position-box "" data-position=""3""></div></div><div class=""position-wrapper""><div class=""position-box "" data-position=""4""></div></div><div class=""position-wrapper""><div class=""position-box "" data-position=""5""></div></div></div><div class=""finger-diagram-container"">
			<img src=""assets/finger-diagrams/finger-diagram-6pos.png"" alt=""Finger position guide"" class=""finger-diagram"" />
		</div>","null","","","","","","","","","",""
"","","","","","main","rsi","html-keyboard-response","57","373245","0.0-21.0-1.0","P_75b53fc0f584fae0d3381340a9067791ba350bcc663cc3ca4eee000dd7215a48","697c608fb23a18f07d093e5b","697c610682796cf0d2f48a45","6","60","1200","12","null","","<div class=""feedback-message""></div><div class=""stimulus-container""><div class=""position-wrapper""><div class=""position-box "" data-position=""0""></div></div><div class=""position-wrapper""><div class=""position-box "" data-position=""1""></div></div><div class=""position-wrapper""><div class=""position-box "" data-position=""2""></div></div><div class=""position-wrapper""><div class=""position-box "" data-position=""3""></div></div><div class=""position-wrapper""><div class=""position-box "" data-position=""4""></div></div><div class=""position-wrapper""><div class=""position-box "" data-position=""5""></div></div></div><div class=""finger-diagram-container"">
			<img src=""assets/finger-diagrams/finger-diagram-6pos.png"" alt=""Finger position guide"" class=""finger-diagram"" />
		</div>","null","","","","","","","","","",""
"","","","","","main","stimulus","html-keyboard-response","58","374039","0.0-22.0-0.0-0.0","P_75b53fc0f584fae0d3381340a9067791ba350bcc663cc3ca4eee000dd7215a48","697c608fb23a18f07d093e5b","697c610682796cf0d2f48a45","6","60","1200","12","791","","<div class=""feedback-message""></div><div class=""stimulus-container""><div class=""position-wrapper""><div class=""position-box active"" data-position=""0""></div></div><div class=""position-wrapper""><div class=""position-box "" data-position=""1""></div></div><div class=""position-wrapper""><div class=""position-box "" data-position=""2""></div></div><div class=""position-wrapper""><div class=""position-box "" data-position=""3""></div></div><div class=""position-wrapper""><div class=""position-box "" data-position=""4""></div></div><div class=""position-wrapper""><div class=""position-box "" data-position=""5""></div></div></div><div class=""finger-diagram-container"">
			<img src=""assets/finger-diagrams/finger-diagram-6pos.png"" alt=""Finger position guide"" class=""finger-diagram"" />
		</div>","s","0","s","0.6265709654819551","1.0125719939883875","true","0","5","5","",""
"","","","","","main","feedback","html-keyboard-response","59","374245","0.0-22.0-0.0-1.0","P_75b53fc0f584fae0d3381340a9067791ba350bcc663cc3ca4eee000dd7215a48","697c608fb23a18f07d093e5b","697c610682796cf0d2f48a45","6","60","1200","12","null","","<div class=""feedback-message""><div class=""feedback-correct"">✓</div></div><div class=""stimulus-container""><div class=""position-wrapper""><div class=""position-box active"" data-position=""0""></div></div><div class=""position-wrapper""><div class=""position-box "" data-position=""1""></div></div><div class=""position-wrapper""><div class=""position-box "" data-position=""2""></div></div><div class=""position-wrapper""><div class=""position-box "" data-position=""3""></div></div><div class=""position-wrapper""><div class=""position-box "" data-position=""4""></div></div><div class=""position-wrapper""><div class=""position-box "" data-position=""5""></div></div></div><div class=""finger-diagram-container"">
			<img src=""assets/finger-diagrams/finger-diagram-6pos.png"" alt=""Finger position guide"" class=""finger-diagram"" />
		</div>","null","","","","","","","","","",""
"","","","","","main","rsi","html-keyboard-response","60","374376","0.0-22.0-1.0","P_75b53fc0f584fae0d3381340a9067791ba350bcc663cc3ca4eee000dd7215a48","697c608fb23a18f07d093e5b","697c610682796cf0d2f48a45","6","60","1200","12","null","","<div class=""feedback-message""></div><div class=""stimulus-container""><div class=""position-wrapper""><div class=""position-box "" data-position=""0""></div></div><div class=""position-wrapper""><div class=""position-box "" data-position=""1""></div></div><div class=""position-wrapper""><div class=""position-box "" data-position=""2""></div></div><div class=""position-wrapper""><div class=""position-box "" data-position=""3""></div></div><div class=""position-wrapper""><div class=""position-box "" data-position=""4""></div></div><div class=""position-wrapper""><div class=""position-box "" data-position=""5""></div></div></div><div class=""finger-diagram-container"">
			<img src=""assets/finger-diagrams/finger-diagram-6pos.png"" alt=""Finger position guide"" class=""finger-diagram"" />
		</div>","null","","","","","","","","","",""
"","","","","","main","stimulus","html-keyboard-response","61","375365","0.0-23.0-0.0-0.0","P_75b53fc0f584fae0d3381340a9067791ba350bcc663cc3ca4eee000dd7215a48","697c608fb23a18f07d093e5b","697c610682796cf0d2f48a45","6","60","1200","12","986","","<div class=""feedback-message""></div><div class=""stimulus-container""><div class=""position-wrapper""><div class=""position-box "" data-position=""0""></div></div><div class=""position-wrapper""><div class=""position-box active"" data-position=""1""></div></div><div class=""position-wrapper""><div class=""position-box "" data-position=""2""></div></div><div class=""position-wrapper""><div class=""position-box "" data-position=""3""></div></div><div class=""position-wrapper""><div class=""position-box "" data-position=""4""></div></div><div class=""position-wrapper""><div class=""position-box "" data-position=""5""></div></div></div><div class=""finger-diagram-container"">
			<img src=""assets/finger-diagrams/finger-diagram-6pos.png"" alt=""Finger position guide"" class=""finger-diagram"" />
		</div>","d","1","d","0.09237731181353705","0.22743527250800727","true","0","6","6","",""
"","","","","","main","feedback","html-keyboard-response","62","375575","0.0-23.0-0.0-1.0","P_75b53fc0f584fae0d3381340a9067791ba350bcc663cc3ca4eee000dd7215a48","697c608fb23a18f07d093e5b","697c610682796cf0d2f48a45","6","60","1200","12","null","","<div class=""feedback-message""><div class=""feedback-correct"">✓</div></div><div class=""stimulus-container""><div class=""position-wrapper""><div class=""position-box "" data-position=""0""></div></div><div class=""position-wrapper""><div class=""position-box active"" data-position=""1""></div></div><div class=""position-wrapper""><div class=""position-box "" data-position=""2""></div></div><div class=""position-wrapper""><div class=""position-box "" data-position=""3""></div></div><div class=""position-wrapper""><div class=""position-box "" data-position=""4""></div></div><div class=""position-wrapper""><div class=""position-box "" data-position=""5""></div></div></div><div class=""finger-diagram-container"">
			<img src=""assets/finger-diagrams/finger-diagram-6pos.png"" alt=""Finger position guide"" class=""finger-diagram"" />
		</div>","null","","","","","","","","","",""
"","","","","","main","rsi","html-keyboard-response","63","375700","0.0-23.0-1.0","P_75b53fc0f584fae0d3381340a9067791ba350bcc663cc3ca4eee000dd7215a48","697c608fb23a18f07d093e5b","697c610682796cf0d2f48a45","6","60","1200","12","null","","<div class=""feedback-message""></div><div class=""stimulus-container""><div class=""position-wrapper""><div class=""position-box "" data-position=""0""></div></div><div class=""position-wrapper""><div class=""position-box "" data-position=""1""></div></div><div class=""position-wrapper""><div class=""position-box "" data-position=""2""></div></div><div class=""position-wrapper""><div class=""position-box "" data-position=""3""></div></div><div class=""position-wrapper""><div class=""position-box "" data-position=""4""></div></div><div class=""position-wrapper""><div class=""position-box "" data-position=""5""></div></div></div><div class=""finger-diagram-container"">
			<img src=""assets/finger-diagrams/finger-diagram-6pos.png"" alt=""Finger position guide"" class=""finger-diagram"" />
		</div>","null","","","","","","","","","",""
"","","","","","main","stimulus","html-keyboard-response","64","376502","0.0-24.0-0.0-0.0","P_75b53fc0f584fae0d3381340a9067791ba350bcc663cc3ca4eee000dd7215a48","697c608fb23a18f07d093e5b","697c610682796cf0d2f48a45","6","60","1200","12","800","","<div class=""feedback-message""></div><div class=""stimulus-container""><div class=""position-wrapper""><div class=""position-box "" data-position=""0""></div></div><div class=""position-wrapper""><div class=""position-box "" data-position=""1""></div></div><div class=""position-wrapper""><div class=""position-box "" data-position=""2""></div></div><div class=""position-wrapper""><div class=""position-box "" data-position=""3""></div></div><div class=""position-wrapper""><div class=""position-box active"" data-position=""4""></div></div><div class=""position-wrapper""><div class=""position-box "" data-position=""5""></div></div></div><div class=""finger-diagram-container"">
			<img src=""assets/finger-diagrams/finger-diagram-6pos.png"" alt=""Finger position guide"" class=""finger-diagram"" />
		</div>","k","4","k","1.7163490803009984","0.01709636891849747","true","0","7","7","",""
"","","","","","main","feedback","html-keyboard-response","65","376708","0.0-24.0-0.0-1.0","P_75b53fc0f584fae0d3381340a9067791ba350bcc663cc3ca4eee000dd7215a48","697c608fb23a18f07d093e5b","697c610682796cf0d2f48a45","6","60","1200","12","null","","<div class=""feedback-message""><div class=""feedback-correct"">✓</div></div><div class=""stimulus-container""><div class=""position-wrapper""><div class=""position-box "" data-position=""0""></div></div><div class=""position-wrapper""><div class=""position-box "" data-position=""1""></div></div><div class=""position-wrapper""><div class=""position-box "" data-position=""2""></div></div><div class=""position-wrapper""><div class=""position-box "" data-position=""3""></div></div><div class=""position-wrapper""><div class=""position-box active"" data-position=""4""></div></div><div class=""position-wrapper""><div class=""position-box "" data-position=""5""></div></div></div><div class=""finger-diagram-container"">
			<img src=""assets/finger-diagrams/finger-diagram-6pos.png"" alt=""Finger position guide"" class=""finger-diagram"" />
		</div>","null","","","","","","","","","",""
"","","","","","main","rsi","html-keyboard-response","66","376834","0.0-24.0-1.0","P_75b53fc0f584fae0d3381340a9067791ba350bcc663cc3ca4eee000dd7215a48","697c608fb23a18f07d093e5b","697c610682796cf0d2f48a45","6","60","1200","12","null","","<div class=""feedback-message""></div><div class=""stimulus-container""><div class=""position-wrapper""><div class=""position-box "" data-position=""0""></div></div><div class=""position-wrapper""><div class=""position-box "" data-position=""1""></div></div><div class=""position-wrapper""><div class=""position-box "" data-position=""2""></div></div><div class=""position-wrapper""><div class=""position-box "" data-position=""3""></div></div><div class=""position-wrapper""><div class=""position-box "" data-position=""4""></div></div><div class=""position-wrapper""><div class=""position-box "" data-position=""5""></div></div></div><div class=""finger-diagram-container"">
			<img src=""assets/finger-diagrams/finger-diagram-6pos.png"" alt=""Finger position guide"" class=""finger-diagram"" />
		</div>","null","","","","","","","","","",""
"","","","","","main","stimulus","html-keyboard-response","67","377608","0.0-25.0-0.0-0.0","P_75b53fc0f584fae0d3381340a9067791ba350bcc663cc3ca4eee000dd7215a48","697c608fb23a18f07d093e5b","697c610682796cf0d2f48a45","6","60","1200","12","773","","<div class=""feedback-message""></div><div class=""stimulus-container""><div class=""position-wrapper""><div class=""position-box "" data-position=""0""></div></div><div class=""position-wrapper""><div class=""position-box "" data-position=""1""></div></div><div class=""position-wrapper""><div class=""position-box "" data-position=""2""></div></div><div class=""position-wrapper""><div class=""position-box "" data-position=""3""></div></div><div class=""position-wrapper""><div class=""position-box "" data-position=""4""></div></div><div class=""position-wrapper""><div class=""position-box active"" data-position=""5""></div></div></div><div class=""finger-diagram-container"">
			<img src=""assets/finger-diagrams/finger-diagram-6pos.png"" alt=""Finger position guide"" class=""finger-diagram"" />
		</div>","l","5","l","1.9197818344737423","1.0067602970615734","true","0","8","8","",""
"","","","","","main","feedback","html-keyboard-response","68","377818","0.0-25.0-0.0-1.0","P_75b53fc0f584fae0d3381340a9067791ba350bcc663cc3ca4eee000dd7215a48","697c608fb23a18f07d093e5b","697c610682796cf0d2f48a45","6","60","1200","12","null","","<div class=""feedback-message""><div class=""feedback-correct"">✓</div></div><div class=""stimulus-container""><div class=""position-wrapper""><div class=""position-box "" data-position=""0""></div></div><div class=""position-wrapper""><div class=""position-box "" data-position=""1""></div></div><div class=""position-wrapper""><div class=""position-box "" data-position=""2""></div></div><div class=""position-wrapper""><div class=""position-box "" data-position=""3""></div></div><div class=""position-wrapper""><div class=""position-box "" data-position=""4""></div></div><div class=""position-wrapper""><div class=""position-box active"" data-position=""5""></div></div></div><div class=""finger-diagram-container"">
			<img src=""assets/finger-diagrams/finger-diagram-6pos.png"" alt=""Finger position guide"" class=""finger-diagram"" />
		</div>","null","","","","","","","","","",""
"","","","","","main","rsi","html-keyboard-response","69","377943","0.0-25.0-1.0","P_75b53fc0f584fae0d3381340a9067791ba350bcc663cc3ca4eee000dd7215a48","697c608fb23a18f07d093e5b","697c610682796cf0d2f48a45","6","60","1200","12","null","","<div class=""feedback-message""></div><div class=""stimulus-container""><div class=""position-wrapper""><div class=""position-box "" data-position=""0""></div></div><div class=""position-wrapper""><div class=""position-box "" data-position=""1""></div></div><div class=""position-wrapper""><div class=""position-box "" data-position=""2""></div></div><div class=""position-wrapper""><div class=""position-box "" data-position=""3""></div></div><div class=""position-wrapper""><div class=""position-box "" data-position=""4""></div></div><div class=""position-wrapper""><div class=""position-box "" data-position=""5""></div></div></div><div class=""finger-diagram-container"">
			<img src=""assets/finger-diagrams/finger-diagram-6pos.png"" alt=""Finger position guide"" class=""finger-diagram"" />
		</div>","null","","","","","","","","","",""
"","","","","","main","stimulus","html-keyboard-response","70","379173","0.0-26.0-0.0-0.0","P_75b53fc0f584fae0d3381340a9067791ba350bcc663cc3ca4eee000dd7215a48","697c608fb23a18f07d093e5b","697c610682796cf0d2f48a45","6","60","1200","12","1229","","<div class=""feedback-message""></div><div class=""stimulus-container""><div class=""position-wrapper""><div class=""position-box "" data-position=""0""></div></div><div class=""position-wrapper""><div class=""position-box "" data-position=""1""></div></div><div class=""position-wrapper""><div class=""position-box "" data-position=""2""></div></div><div class=""position-wrapper""><div class=""position-box active"" data-position=""3""></div></div><div class=""position-wrapper""><div class=""position-box "" data-position=""4""></div></div><div class=""position-wrapper""><div class=""position-box "" data-position=""5""></div></div></div><div class=""finger-diagram-container"">
			<img src=""assets/finger-diagrams/finger-diagram-6pos.png"" alt=""Finger position guide"" class=""finger-diagram"" />
		</div>","j","3","j","1.7164586615480486","1.9047769601464493","true","0","9","9","",""
"","","","","","main","feedback","html-keyboard-response","71","379391","0.0-26.0-0.0-1.0","P_75b53fc0f584fae0d3381340a9067791ba350bcc663cc3ca4eee000dd7215a48","697c608fb23a18f07d093e5b","697c610682796cf0d2f48a45","6","60","1200","12","null","","<div class=""feedback-message""><div class=""feedback-correct"">✓</div></div><div class=""stimulus-container""><div class=""position-wrapper""><div class=""position-box "" data-position=""0""></div></div><div class=""position-wrapper""><div class=""position-box "" data-position=""1""></div></div><div class=""position-wrapper""><div class=""position-box "" data-position=""2""></div></div><div class=""position-wrapper""><div class=""position-box active"" data-position=""3""></div></div><div class=""position-wrapper""><div class=""position-box "" data-position=""4""></div></div><div class=""position-wrapper""><div class=""position-box "" data-position=""5""></div></div></div><div class=""finger-diagram-container"">
			<img src=""assets/finger-diagrams/finger-diagram-6pos.png"" alt=""Finger position guide"" class=""finger-diagram"" />
		</div>","null","","","","","","","","","",""
"","","","","","main","rsi","html-keyboard-response","72","379520","0.0-26.0-1.0","P_75b53fc0f584fae0d3381340a9067791ba350bcc663cc3ca4eee000dd7215a48","697c608fb23a18f07d093e5b","697c610682796cf0d2f48a45","6","60","1200","12","null","","<div class=""feedback-message""></div><div class=""stimulus-container""><div class=""position-wrapper""><div class=""position-box "" data-position=""0""></div></div><div class=""position-wrapper""><div class=""position-box "" data-position=""1""></div></div><div class=""position-wrapper""><div class=""position-box "" data-position=""2""></div></div><div class=""position-wrapper""><div class=""position-box "" data-position=""3""></div></div><div class=""position-wrapper""><div class=""position-box "" data-position=""4""></div></div><div class=""position-wrapper""><div class=""position-box "" data-position=""5""></div></div></div><div class=""finger-diagram-container"">
			<img src=""assets/finger-diagrams/finger-diagram-6pos.png"" alt=""Finger position guide"" class=""finger-diagram"" />
		</div>","null","","","","","","","","","",""
"","","","","","main","stimulus","html-keyboard-response","73","381271","0.0-27.0-0.0-0.0","P_75b53fc0f584fae0d3381340a9067791ba350bcc663cc3ca4eee000dd7215a48","697c608fb23a18f07d093e5b","697c610682796cf0d2f48a45","6","60","1200","12","1749","","<div class=""feedback-message""></div><div class=""stimulus-container""><div class=""position-wrapper""><div class=""position-box "" data-position=""0""></div></div><div class=""position-wrapper""><div class=""position-box "" data-position=""1""></div></div><div class=""position-wrapper""><div class=""position-box active"" data-position=""2""></div></div><div class=""position-wrapper""><div class=""position-box "" data-position=""3""></div></div><div class=""position-wrapper""><div class=""position-box "" data-position=""4""></div></div><div class=""position-wrapper""><div class=""position-box "" data-position=""5""></div></div></div><div class=""finger-diagram-container"">
			<img src=""assets/finger-diagrams/finger-diagram-6pos.png"" alt=""Finger position guide"" class=""finger-diagram"" />
		</div>","f","2","f","1.6016287006430232","2.252586153084321","true","0","10","10","",""
"","","","","","main","feedback","html-keyboard-response","74","381476","0.0-27.0-0.0-1.0","P_75b53fc0f584fae0d3381340a9067791ba350bcc663cc3ca4eee000dd7215a48","697c608fb23a18f07d093e5b","697c610682796cf0d2f48a45","6","60","1200","12","null","","<div class=""feedback-message""><div class=""feedback-correct"">✓</div></div><div class=""stimulus-container""><div class=""position-wrapper""><div class=""position-box "" data-position=""0""></div></div><div class=""position-wrapper""><div class=""position-box "" data-position=""1""></div></div><div class=""position-wrapper""><div class=""position-box active"" data-position=""2""></div></div><div class=""position-wrapper""><div class=""position-box "" data-position=""3""></div></div><div class=""position-wrapper""><div class=""position-box "" data-position=""4""></div></div><div class=""position-wrapper""><div class=""position-box "" data-position=""5""></div></div></div><div class=""finger-diagram-container"">
			<img src=""assets/finger-diagrams/finger-diagram-6pos.png"" alt=""Finger position guide"" class=""finger-diagram"" />
		</div>","null","","","","","","","","","",""
"","","","","","main","rsi","html-keyboard-response","75","381599","0.0-27.0-1.0","P_75b53fc0f584fae0d3381340a9067791ba350bcc663cc3ca4eee000dd7215a48","697c608fb23a18f07d093e5b","697c610682796cf0d2f48a45","6","60","1200","12","null","","<div class=""feedback-message""></div><div class=""stimulus-container""><div class=""position-wrapper""><div class=""position-box "" data-position=""0""></div></div><div class=""position-wrapper""><div class=""position-box "" data-position=""1""></div></div><div class=""position-wrapper""><div class=""position-box "" data-position=""2""></div></div><div class=""position-wrapper""><div class=""position-box "" data-position=""3""></div></div><div class=""position-wrapper""><div class=""position-box "" data-position=""4""></div></div><div class=""position-wrapper""><div class=""position-box "" data-position=""5""></div></div></div><div class=""finger-diagram-container"">
			<img src=""assets/finger-diagrams/finger-diagram-6pos.png"" alt=""Finger position guide"" class=""finger-diagram"" />
		</div>","null","","","","","","","","","",""
"","","","","","main","stimulus","html-keyboard-response","76","382162","0.0-28.0-0.0-0.0","P_75b53fc0f584fae0d3381340a9067791ba350bcc663cc3ca4eee000dd7215a48","697c608fb23a18f07d093e5b","697c610682796cf0d2f48a45","6","60","1200","12","561","","<div class=""feedback-message""></div><div class=""stimulus-container""><div class=""position-wrapper""><div class=""position-box active"" data-position=""0""></div></div><div class=""position-wrapper""><div class=""position-box "" data-position=""1""></div></div><div class=""position-wrapper""><div class=""position-box "" data-position=""2""></div></div><div class=""position-wrapper""><div class=""position-box "" data-position=""3""></div></div><div class=""position-wrapper""><div class=""position-box "" data-position=""4""></div></div><div class=""position-wrapper""><div class=""position-box "" data-position=""5""></div></div></div><div class=""finger-diagram-container"">
			<img src=""assets/finger-diagrams/finger-diagram-6pos.png"" alt=""Finger position guide"" class=""finger-diagram"" />
		</div>","s","0","s","0.6265709654819551","1.0125719939883875","true","0","11","11","",""
"","","","","","main","feedback","html-keyboard-response","77","382369","0.0-28.0-0.0-1.0","P_75b53fc0f584fae0d3381340a9067791ba350bcc663cc3ca4eee000dd7215a48","697c608fb23a18f07d093e5b","697c610682796cf0d2f48a45","6","60","1200","12","null","","<div class=""feedback-message""><div class=""feedback-correct"">✓</div></div><div class=""stimulus-container""><div class=""position-wrapper""><div class=""position-box active"" data-position=""0""></div></div><div class=""position-wrapper""><div class=""position-box "" data-position=""1""></div></div><div class=""position-wrapper""><div class=""position-box "" data-position=""2""></div></div><div class=""position-wrapper""><div class=""position-box "" data-position=""3""></div></div><div class=""position-wrapper""><div class=""position-box "" data-position=""4""></div></div><div class=""position-wrapper""><div class=""position-box "" data-position=""5""></div></div></div><div class=""finger-diagram-container"">
			<img src=""assets/finger-diagrams/finger-diagram-6pos.png"" alt=""Finger position guide"" class=""finger-diagram"" />
		</div>","null","","","","","","","","","",""
"","","","","","main","rsi","html-keyboard-response","78","382496","0.0-28.0-1.0","P_75b53fc0f584fae0d3381340a9067791ba350bcc663cc3ca4eee000dd7215a48","697c608fb23a18f07d093e5b","697c610682796cf0d2f48a45","6","60","1200","12","null","","<div class=""feedback-message""></div><div class=""stimulus-container""><div class=""position-wrapper""><div class=""position-box "" data-position=""0""></div></div><div class=""position-wrapper""><div class=""position-box "" data-position=""1""></div></div><div class=""position-wrapper""><div class=""position-box "" data-position=""2""></div></div><div class=""position-wrapper""><div class=""position-box "" data-position=""3""></div></div><div class=""position-wrapper""><div class=""position-box "" data-position=""4""></div></div><div class=""position-wrapper""><div class=""position-box "" data-position=""5""></div></div></div><div class=""finger-diagram-container"">
			<img src=""assets/finger-diagrams/finger-diagram-6pos.png"" alt=""Finger position guide"" class=""finger-diagram"" />
		</div>","null","","","","","","","","","",""
"","","","","","main","stimulus","html-keyboard-response","79","383142","0.0-29.0-0.0-0.0","P_75b53fc0f584fae0d3381340a9067791ba350bcc663cc3ca4eee000dd7215a48","697c608fb23a18f07d093e5b","697c610682796cf0d2f48a45","6","60","1200","12","644","","<div class=""feedback-message""></div><div class=""stimulus-container""><div class=""position-wrapper""><div class=""position-box "" data-position=""0""></div></div><div class=""position-wrapper""><div class=""position-box active"" data-position=""1""></div></div><div class=""position-wrapper""><div class=""position-box "" data-position=""2""></div></div><div class=""position-wrapper""><div class=""position-box "" data-position=""3""></div></div><div class=""position-wrapper""><div class=""position-box "" data-position=""4""></div></div><div class=""position-wrapper""><div class=""position-box "" data-position=""5""></div></div></div><div class=""finger-diagram-container"">
			<img src=""assets/finger-diagrams/finger-diagram-6pos.png"" alt=""Finger position guide"" class=""finger-diagram"" />
		</div>","d","1","d","0.09237731181353705","0.22743527250800727","true","0","12","12","",""
"","","","","","main","feedback","html-keyboard-response","80","383349","0.0-29.0-0.0-1.0","P_75b53fc0f584fae0d3381340a9067791ba350bcc663cc3ca4eee000dd7215a48","697c608fb23a18f07d093e5b","697c610682796cf0d2f48a45","6","60","1200","12","null","","<div class=""feedback-message""><div class=""feedback-correct"">✓</div></div><div class=""stimulus-container""><div class=""position-wrapper""><div class=""position-box "" data-position=""0""></div></div><div class=""position-wrapper""><div class=""position-box active"" data-position=""1""></div></div><div class=""position-wrapper""><div class=""position-box "" data-position=""2""></div></div><div class=""position-wrapper""><div class=""position-box "" data-position=""3""></div></div><div class=""position-wrapper""><div class=""position-box "" data-position=""4""></div></div><div class=""position-wrapper""><div class=""position-box "" data-position=""5""></div></div></div><div class=""finger-diagram-container"">
			<img src=""assets/finger-diagrams/finger-diagram-6pos.png"" alt=""Finger position guide"" class=""finger-diagram"" />
		</div>","null","","","","","","","","","",""
"","","","","","main","rsi","html-keyboard-response","81","383482","0.0-29.0-1.0","P_75b53fc0f584fae0d3381340a9067791ba350bcc663cc3ca4eee000dd7215a48","697c608fb23a18f07d093e5b","697c610682796cf0d2f48a45","6","60","1200","12","null","","<div class=""feedback-message""></div><div class=""stimulus-container""><div class=""position-wrapper""><div class=""position-box "" data-position=""0""></div></div><div class=""position-wrapper""><div class=""position-box "" data-position=""1""></div></div><div class=""position-wrapper""><div class=""position-box "" data-position=""2""></div></div><div class=""position-wrapper""><div class=""position-box "" data-position=""3""></div></div><div class=""position-wrapper""><div class=""position-box "" data-position=""4""></div></div><div class=""position-wrapper""><div class=""position-box "" data-position=""5""></div></div></div><div class=""finger-diagram-container"">
			<img src=""assets/finger-diagrams/finger-diagram-6pos.png"" alt=""Finger position guide"" class=""finger-diagram"" />
		</div>","null","","","","","","","","","",""
"","","","","","main","stimulus","html-keyboard-response","82","384940","0.0-30.0-0.0-0.0","P_75b53fc0f584fae0d3381340a9067791ba350bcc663cc3ca4eee000dd7215a48","697c608fb23a18f07d093e5b","697c610682796cf0d2f48a45","6","60","1200","12","1456","","<div class=""feedback-message""></div><div class=""stimulus-container""><div class=""position-wrapper""><div class=""position-box "" data-position=""0""></div></div><div class=""position-wrapper""><div class=""position-box "" data-position=""1""></div></div><div class=""position-wrapper""><div class=""position-box "" data-position=""2""></div></div><div class=""position-wrapper""><div class=""position-box "" data-position=""3""></div></div><div class=""position-wrapper""><div class=""position-box active"" data-position=""4""></div></div><div class=""position-wrapper""><div class=""position-box "" data-position=""5""></div></div></div><div class=""finger-diagram-container"">
			<img src=""assets/finger-diagrams/finger-diagram-6pos.png"" alt=""Finger position guide"" class=""finger-diagram"" />
		</div>","k","4","k","1.7163490803009984","0.01709636891849747","true","0","13","13","",""
"","","","","","main","feedback","html-keyboard-response","83","385146","0.0-30.0-0.0-1.0","P_75b53fc0f584fae0d3381340a9067791ba350bcc663cc3ca4eee000dd7215a48","697c608fb23a18f07d093e5b","697c610682796cf0d2f48a45","6","60","1200","12","null","","<div class=""feedback-message""><div class=""feedback-correct"">✓</div></div><div class=""stimulus-container""><div class=""position-wrapper""><div class=""position-box "" data-position=""0""></div></div><div class=""position-wrapper""><div class=""position-box "" data-position=""1""></div></div><div class=""position-wrapper""><div class=""position-box "" data-position=""2""></div></div><div class=""position-wrapper""><div class=""position-box "" data-position=""3""></div></div><div class=""position-wrapper""><div class=""position-box active"" data-position=""4""></div></div><div class=""position-wrapper""><div class=""position-box "" data-position=""5""></div></div></div><div class=""finger-diagram-container"">
			<img src=""assets/finger-diagrams/finger-diagram-6pos.png"" alt=""Finger position guide"" class=""finger-diagram"" />
		</div>","null","","","","","","","","","",""
"","","","","","main","rsi","html-keyboard-response","84","385271","0.0-30.0-1.0","P_75b53fc0f584fae0d3381340a9067791ba350bcc663cc3ca4eee000dd7215a48","697c608fb23a18f07d093e5b","697c610682796cf0d2f48a45","6","60","1200","12","null","","<div class=""feedback-message""></div><div class=""stimulus-container""><div class=""position-wrapper""><div class=""position-box "" data-position=""0""></div></div><div class=""position-wrapper""><div class=""position-box "" data-position=""1""></div></div><div class=""position-wrapper""><div class=""position-box "" data-position=""2""></div></div><div class=""position-wrapper""><div class=""position-box "" data-position=""3""></div></div><div class=""position-wrapper""><div class=""position-box "" data-position=""4""></div></div><div class=""position-wrapper""><div class=""position-box "" data-position=""5""></div></div></div><div class=""finger-diagram-container"">
			<img src=""assets/finger-diagrams/finger-diagram-6pos.png"" alt=""Finger position guide"" class=""finger-diagram"" />
		</div>","null","","","","","","","","","",""
