"success","timeout","failed_images","failed_audio","failed_video","phase","experiment_trial_type","trial_type","trial_index","time_elapsed","internal_node_id","subject_id","study_id","session_id","matrix_size","transition_matrix","conditional_entropies","sequence","trials_per_block","total_trials","practice_trials","rt","view_history","stimulus","response","position","correct_key","correct","block","trial_in_block","overall_trial","question_order","questionnaire_item"
"true","false","[]","[]","[]","preload","preload","preload","0","960","0.0-0.0","P_000e32c5ef794b6bd4ba724ecd8b302b585a1b33244f863854caa86473d59737","6975d475053a04ec2a824d54","6975d4f442704de9e9b476a6","6","[[0,0.2273234356477396,1.4382488357004985e-11,0.20981619168212484,0.06519783227405394,0.49766254038169905],[0,0.22736964714484262,1.4389615966943733e-11,0.20984759685851753,0.06520404977486319,0.4975787062073871],[0.9882196383546002,7.505216870414609e-13,1.4258841105232542e-11,0.011780361555829953,5.905431977191516e-11,1.550626783568228e-11],[0.011768424314658198,0.27410027860516395,1.4381596613135696e-11,0.21370829276791165,0.4956618083854289,0.004761195912455649],[0,0.004151376708677999,0.8541519975946235,0.14169662567971403,1.363513216867255e-12,1.562112260929659e-11],[0,0.26705763578310293,0.14585056634172525,0.21315316928175454,0.3739386285926206,7.966607020055105e-13]]","[1.7163490803009984,1.7164586615480488,0.09237731181353706,1.6016287006430234,0.6265709654819551,1.9197818344737418]","[1,3,0,5,3,4,2,0,5,1,3,3,1,5,4,3,4,2,0,5,1,3,4,2,0,3,1,5,3,4,2,0,3,4,2,0,1,1,5,4,2,0,1,5,1,3,4,3,4,2,0,1,5,4,2,0,5,3,3,3,3,4,2,0,3,1,5,4,2,0,1,5,1,3,4,2,0,4,2,0,5,3,4,2,0,5,4,2,0,1,5,3,4,2,0,5,4,2,0,5,4,2,0,3,1,1,3,4,3,1,5,4,3,4,2,0,4,2,0,5,3,1,5,1,5,2,0,3,1,1,3,4,2,0,5,4,2,0,5,4,2,0,5,1,5,2,0,5,2,0,1,5,1,5,1,3,4,2,0,5,4,2,0,3,4,2,0,5,4,2,0,5,4,2,0,1,5,3,1,3,4,3,3,1,1,5,3,1,5,3,3,4,2,0,5,4,3,4,2,0,4,2,0,5,4,2,0,5,2,0,5,4,3,4,2,0,5,1,1,1,4,2,0,4,2,0,1,5,2,0,3,4,3,4,3,1,5,1,1,5,1,4,2,0,5,3,3,3,4,2,0,5,4,2,0,1,5,2,0,1,1,3,3,1,5,2,0,5,3,1,1,1,1,1,1,1,1,1,1,5,3,4,2,0,5,4,2,0,5,4,2,0,1,3,1,5,4,2,0,3,4,2,0,5,3,1,5,1,1,3,3,4,2,0,5,4,3,4,2,0,1,5,1,1,3,1,1,3,3,4,2,0,5,2,0,5,2,0,3,5,2,0,5,4,2,0,5,3,4,2,0,5,4,2,0,5,1,5,1,5,1,1,1,3,1,1,1,5,2,0,5,4,2,0,1,4,2,0,3,4,2,0,5,4,2,0,5,4,2,0,5,1,1,1,3,1,5,2,0,1,3,4,2,0,4,2,0,5,1,5,1,1,4,2,0,3,1,1,1,1]","60","420","12","","","","","","","","","","","",""
"true","","","","","fullscreen","fullscreen","fullscreen","1","7695","0.0-1.0","P_000e32c5ef794b6bd4ba724ecd8b302b585a1b33244f863854caa86473d59737","6975d475053a04ec2a824d54","6975d4f442704de9e9b476a6","6","[[0,0.2273234356477396,1.4382488357004985e-11,0.20981619168212484,0.06519783227405394,0.49766254038169905],[0,0.22736964714484262,1.4389615966943733e-11,0.20984759685851753,0.06520404977486319,0.4975787062073871],[0.9882196383546002,7.505216870414609e-13,1.4258841105232542e-11,0.011780361555829953,5.905431977191516e-11,1.550626783568228e-11],[0.011768424314658198,0.27410027860516395,1.4381596613135696e-11,0.21370829276791165,0.4956618083854289,0.004761195912455649],[0,0.004151376708677999,0.8541519975946235,0.14169662567971403,1.363513216867255e-12,1.562112260929659e-11],[0,0.26705763578310293,0.14585056634172525,0.21315316928175454,0.3739386285926206,7.966607020055105e-13]]","[1.7163490803009984,1.7164586615480488,0.09237731181353706,1.6016287006430234,0.6265709654819551,1.9197818344737418]","[1,3,0,5,3,4,2,0,5,1,3,3,1,5,4,3,4,2,0,5,1,3,4,2,0,3,1,5,3,4,2,0,3,4,2,0,1,1,5,4,2,0,1,5,1,3,4,3,4,2,0,1,5,4,2,0,5,3,3,3,3,4,2,0,3,1,5,4,2,0,1,5,1,3,4,2,0,4,2,0,5,3,4,2,0,5,4,2,0,1,5,3,4,2,0,5,4,2,0,5,4,2,0,3,1,1,3,4,3,1,5,4,3,4,2,0,4,2,0,5,3,1,5,1,5,2,0,3,1,1,3,4,2,0,5,4,2,0,5,4,2,0,5,1,5,2,0,5,2,0,1,5,1,5,1,3,4,2,0,5,4,2,0,3,4,2,0,5,4,2,0,5,4,2,0,1,5,3,1,3,4,3,3,1,1,5,3,1,5,3,3,4,2,0,5,4,3,4,2,0,4,2,0,5,4,2,0,5,2,0,5,4,3,4,2,0,5,1,1,1,4,2,0,4,2,0,1,5,2,0,3,4,3,4,3,1,5,1,1,5,1,4,2,0,5,3,3,3,4,2,0,5,4,2,0,1,5,2,0,1,1,3,3,1,5,2,0,5,3,1,1,1,1,1,1,1,1,1,1,5,3,4,2,0,5,4,2,0,5,4,2,0,1,3,1,5,4,2,0,3,4,2,0,5,3,1,5,1,1,3,3,4,2,0,5,4,3,4,2,0,1,5,1,1,3,1,1,3,3,4,2,0,5,2,0,5,2,0,3,5,2,0,5,4,2,0,5,3,4,2,0,5,4,2,0,5,1,5,1,5,1,1,1,3,1,1,1,5,2,0,5,4,2,0,1,4,2,0,3,4,2,0,5,4,2,0,5,4,2,0,5,1,1,1,3,1,5,2,0,1,3,4,2,0,4,2,0,5,1,5,1,1,4,2,0,3,1,1,1,1]","60","420","12","5728","","","","","","","","","","",""
"","","","","","instructions","instructions","instructions","2","180602","0.0-2.0","P_000e32c5ef794b6bd4ba724ecd8b302b585a1b33244f863854caa86473d59737","6975d475053a04ec2a824d54","6975d4f442704de9e9b476a6","6","[[0,0.2273234356477396,1.4382488357004985e-11,0.20981619168212484,0.06519783227405394,0.49766254038169905],[0,0.22736964714484262,1.4389615966943733e-11,0.20984759685851753,0.06520404977486319,0.4975787062073871],[0.9882196383546002,7.505216870414609e-13,1.4258841105232542e-11,0.011780361555829953,5.905431977191516e-11,1.550626783568228e-11],[0.011768424314658198,0.27410027860516395,1.4381596613135696e-11,0.21370829276791165,0.4956618083854289,0.004761195912455649],[0,0.004151376708677999,0.8541519975946235,0.14169662567971403,1.363513216867255e-12,1.562112260929659e-11],[0,0.26705763578310293,0.14585056634172525,0.21315316928175454,0.3739386285926206,7.966607020055105e-13]]","[1.7163490803009984,1.7164586615480488,0.09237731181353706,1.6016287006430234,0.6265709654819551,1.9197818344737418]","[1,3,0,5,3,4,2,0,5,1,3,3,1,5,4,3,4,2,0,5,1,3,4,2,0,3,1,5,3,4,2,0,3,4,2,0,1,1,5,4,2,0,1,5,1,3,4,3,4,2,0,1,5,4,2,0,5,3,3,3,3,4,2,0,3,1,5,4,2,0,1,5,1,3,4,2,0,4,2,0,5,3,4,2,0,5,4,2,0,1,5,3,4,2,0,5,4,2,0,5,4,2,0,3,1,1,3,4,3,1,5,4,3,4,2,0,4,2,0,5,3,1,5,1,5,2,0,3,1,1,3,4,2,0,5,4,2,0,5,4,2,0,5,1,5,2,0,5,2,0,1,5,1,5,1,3,4,2,0,5,4,2,0,3,4,2,0,5,4,2,0,5,4,2,0,1,5,3,1,3,4,3,3,1,1,5,3,1,5,3,3,4,2,0,5,4,3,4,2,0,4,2,0,5,4,2,0,5,2,0,5,4,3,4,2,0,5,1,1,1,4,2,0,4,2,0,1,5,2,0,3,4,3,4,3,1,5,1,1,5,1,4,2,0,5,3,3,3,4,2,0,5,4,2,0,1,5,2,0,1,1,3,3,1,5,2,0,5,3,1,1,1,1,1,1,1,1,1,1,5,3,4,2,0,5,4,2,0,5,4,2,0,1,3,1,5,4,2,0,3,4,2,0,5,3,1,5,1,1,3,3,4,2,0,5,4,3,4,2,0,1,5,1,1,3,1,1,3,3,4,2,0,5,2,0,5,2,0,3,5,2,0,5,4,2,0,5,3,4,2,0,5,4,2,0,5,1,5,1,5,1,1,1,3,1,1,1,5,2,0,5,4,2,0,1,4,2,0,3,4,2,0,5,4,2,0,5,4,2,0,5,1,1,1,3,1,5,2,0,1,3,4,2,0,4,2,0,5,1,5,1,1,4,2,0,3,1,1,1,1]","60","420","12","172905","[{""page_index"":0,""viewing_time"":65840},{""page_index"":1,""viewing_time"":79880},{""page_index"":2,""viewing_time"":22352},{""page_index"":3,""viewing_time"":4832}]","","","","","","","","","",""
"","","","","","practice","stimulus","html-keyboard-response","3","183794","0.0-3.0-0.0-0.0","P_000e32c5ef794b6bd4ba724ecd8b302b585a1b33244f863854caa86473d59737","6975d475053a04ec2a824d54","6975d4f442704de9e9b476a6","6","[[0,0.2273234356477396,1.4382488357004985e-11,0.20981619168212484,0.06519783227405394,0.49766254038169905],[0,0.22736964714484262,1.4389615966943733e-11,0.20984759685851753,0.06520404977486319,0.4975787062073871],[0.9882196383546002,7.505216870414609e-13,1.4258841105232542e-11,0.011780361555829953,5.905431977191516e-11,1.550626783568228e-11],[0.011768424314658198,0.27410027860516395,1.4381596613135696e-11,0.21370829276791165,0.4956618083854289,0.004761195912455649],[0,0.004151376708677999,0.8541519975946235,0.14169662567971403,1.363513216867255e-12,1.562112260929659e-11],[0,0.26705763578310293,0.14585056634172525,0.21315316928175454,0.3739386285926206,7.966607020055105e-13]]","[1.7163490803009984,1.7164586615480488,0.09237731181353706,1.6016287006430234,0.6265709654819551,1.9197818344737418]","[1,3,0,5,3,4,2,0,5,1,3,3,1,5,4,3,4,2,0,5,1,3,4,2,0,3,1,5,3,4,2,0,3,4,2,0,1,1,5,4,2,0,1,5,1,3,4,3,4,2,0,1,5,4,2,0,5,3,3,3,3,4,2,0,3,1,5,4,2,0,1,5,1,3,4,2,0,4,2,0,5,3,4,2,0,5,4,2,0,1,5,3,4,2,0,5,4,2,0,5,4,2,0,3,1,1,3,4,3,1,5,4,3,4,2,0,4,2,0,5,3,1,5,1,5,2,0,3,1,1,3,4,2,0,5,4,2,0,5,4,2,0,5,1,5,2,0,5,2,0,1,5,1,5,1,3,4,2,0,5,4,2,0,3,4,2,0,5,4,2,0,5,4,2,0,1,5,3,1,3,4,3,3,1,1,5,3,1,5,3,3,4,2,0,5,4,3,4,2,0,4,2,0,5,4,2,0,5,2,0,5,4,3,4,2,0,5,1,1,1,4,2,0,4,2,0,1,5,2,0,3,4,3,4,3,1,5,1,1,5,1,4,2,0,5,3,3,3,4,2,0,5,4,2,0,1,5,2,0,1,1,3,3,1,5,2,0,5,3,1,1,1,1,1,1,1,1,1,1,5,3,4,2,0,5,4,2,0,5,4,2,0,1,3,1,5,4,2,0,3,4,2,0,5,3,1,5,1,1,3,3,4,2,0,5,4,3,4,2,0,1,5,1,1,3,1,1,3,3,4,2,0,5,2,0,5,2,0,3,5,2,0,5,4,2,0,5,3,4,2,0,5,4,2,0,5,1,5,1,5,1,1,1,3,1,1,1,5,2,0,5,4,2,0,1,4,2,0,3,4,2,0,5,4,2,0,5,4,2,0,5,1,1,1,3,1,5,2,0,1,3,4,2,0,4,2,0,5,1,5,1,1,4,2,0,3,1,1,1,1]","60","420","12","3190","","<div class=""feedback-message""></div><div class=""stimulus-container""><div class=""position-wrapper""><div class=""key-label"">S</div><div class=""position-box active"" data-position=""0""></div></div><div class=""position-wrapper""><div class=""key-label"">D</div><div class=""position-box "" data-position=""1""></div></div><div class=""position-wrapper""><div class=""key-label"">F</div><div class=""position-box "" data-position=""2""></div></div><div class=""position-wrapper""><div class=""key-label"">J</div><div class=""position-box "" data-position=""3""></div></div><div class=""position-wrapper""><div class=""key-label"">K</div><div class=""position-box "" data-position=""4""></div></div><div class=""position-wrapper""><div class=""key-label"">L</div><div class=""position-box "" data-position=""5""></div></div></div><div class=""finger-diagram-container"">
			<img src=""assets/finger-diagrams/finger-diagram-6pos.png"" alt=""Finger position guide"" class=""finger-diagram"" />
		</div>","s","0","s","true","","","","",""
"","","","","","practice","feedback","html-keyboard-response","4","183997","0.0-3.0-0.0-1.0","P_000e32c5ef794b6bd4ba724ecd8b302b585a1b33244f863854caa86473d59737","6975d475053a04ec2a824d54","6975d4f442704de9e9b476a6","6","[[0,0.2273234356477396,1.4382488357004985e-11,0.20981619168212484,0.06519783227405394,0.49766254038169905],[0,0.22736964714484262,1.4389615966943733e-11,0.20984759685851753,0.06520404977486319,0.4975787062073871],[0.9882196383546002,7.505216870414609e-13,1.4258841105232542e-11,0.011780361555829953,5.905431977191516e-11,1.550626783568228e-11],[0.011768424314658198,0.27410027860516395,1.4381596613135696e-11,0.21370829276791165,0.4956618083854289,0.004761195912455649],[0,0.004151376708677999,0.8541519975946235,0.14169662567971403,1.363513216867255e-12,1.562112260929659e-11],[0,0.26705763578310293,0.14585056634172525,0.21315316928175454,0.3739386285926206,7.966607020055105e-13]]","[1.7163490803009984,1.7164586615480488,0.09237731181353706,1.6016287006430234,0.6265709654819551,1.9197818344737418]","[1,3,0,5,3,4,2,0,5,1,3,3,1,5,4,3,4,2,0,5,1,3,4,2,0,3,1,5,3,4,2,0,3,4,2,0,1,1,5,4,2,0,1,5,1,3,4,3,4,2,0,1,5,4,2,0,5,3,3,3,3,4,2,0,3,1,5,4,2,0,1,5,1,3,4,2,0,4,2,0,5,3,4,2,0,5,4,2,0,1,5,3,4,2,0,5,4,2,0,5,4,2,0,3,1,1,3,4,3,1,5,4,3,4,2,0,4,2,0,5,3,1,5,1,5,2,0,3,1,1,3,4,2,0,5,4,2,0,5,4,2,0,5,1,5,2,0,5,2,0,1,5,1,5,1,3,4,2,0,5,4,2,0,3,4,2,0,5,4,2,0,5,4,2,0,1,5,3,1,3,4,3,3,1,1,5,3,1,5,3,3,4,2,0,5,4,3,4,2,0,4,2,0,5,4,2,0,5,2,0,5,4,3,4,2,0,5,1,1,1,4,2,0,4,2,0,1,5,2,0,3,4,3,4,3,1,5,1,1,5,1,4,2,0,5,3,3,3,4,2,0,5,4,2,0,1,5,2,0,1,1,3,3,1,5,2,0,5,3,1,1,1,1,1,1,1,1,1,1,5,3,4,2,0,5,4,2,0,5,4,2,0,1,3,1,5,4,2,0,3,4,2,0,5,3,1,5,1,1,3,3,4,2,0,5,4,3,4,2,0,1,5,1,1,3,1,1,3,3,4,2,0,5,2,0,5,2,0,3,5,2,0,5,4,2,0,5,3,4,2,0,5,4,2,0,5,1,5,1,5,1,1,1,3,1,1,1,5,2,0,5,4,2,0,1,4,2,0,3,4,2,0,5,4,2,0,5,4,2,0,5,1,1,1,3,1,5,2,0,1,3,4,2,0,4,2,0,5,1,5,1,1,4,2,0,3,1,1,1,1]","60","420","12","null","","<div class=""feedback-message""><div class=""feedback-correct"">✓</div></div><div class=""stimulus-container""><div class=""position-wrapper""><div class=""key-label"">S</div><div class=""position-box active"" data-position=""0""></div></div><div class=""position-wrapper""><div class=""key-label"">D</div><div class=""position-box "" data-position=""1""></div></div><div class=""position-wrapper""><div class=""key-label"">F</div><div class=""position-box "" data-position=""2""></div></div><div class=""position-wrapper""><div class=""key-label"">J</div><div class=""position-box "" data-position=""3""></div></div><div class=""position-wrapper""><div class=""key-label"">K</div><div class=""position-box "" data-position=""4""></div></div><div class=""position-wrapper""><div class=""key-label"">L</div><div class=""position-box "" data-position=""5""></div></div></div><div class=""finger-diagram-container"">
			<img src=""assets/finger-diagrams/finger-diagram-6pos.png"" alt=""Finger position guide"" class=""finger-diagram"" />
		</div>","null","","","","","","","",""
"","","","","","practice","rsi","html-keyboard-response","5","184121","0.0-3.0-1.0","P_000e32c5ef794b6bd4ba724ecd8b302b585a1b33244f863854caa86473d59737","6975d475053a04ec2a824d54","6975d4f442704de9e9b476a6","6","[[0,0.2273234356477396,1.4382488357004985e-11,0.20981619168212484,0.06519783227405394,0.49766254038169905],[0,0.22736964714484262,1.4389615966943733e-11,0.20984759685851753,0.06520404977486319,0.4975787062073871],[0.9882196383546002,7.505216870414609e-13,1.4258841105232542e-11,0.011780361555829953,5.905431977191516e-11,1.550626783568228e-11],[0.011768424314658198,0.27410027860516395,1.4381596613135696e-11,0.21370829276791165,0.4956618083854289,0.004761195912455649],[0,0.004151376708677999,0.8541519975946235,0.14169662567971403,1.363513216867255e-12,1.562112260929659e-11],[0,0.26705763578310293,0.14585056634172525,0.21315316928175454,0.3739386285926206,7.966607020055105e-13]]","[1.7163490803009984,1.7164586615480488,0.09237731181353706,1.6016287006430234,0.6265709654819551,1.9197818344737418]","[1,3,0,5,3,4,2,0,5,1,3,3,1,5,4,3,4,2,0,5,1,3,4,2,0,3,1,5,3,4,2,0,3,4,2,0,1,1,5,4,2,0,1,5,1,3,4,3,4,2,0,1,5,4,2,0,5,3,3,3,3,4,2,0,3,1,5,4,2,0,1,5,1,3,4,2,0,4,2,0,5,3,4,2,0,5,4,2,0,1,5,3,4,2,0,5,4,2,0,5,4,2,0,3,1,1,3,4,3,1,5,4,3,4,2,0,4,2,0,5,3,1,5,1,5,2,0,3,1,1,3,4,2,0,5,4,2,0,5,4,2,0,5,1,5,2,0,5,2,0,1,5,1,5,1,3,4,2,0,5,4,2,0,3,4,2,0,5,4,2,0,5,4,2,0,1,5,3,1,3,4,3,3,1,1,5,3,1,5,3,3,4,2,0,5,4,3,4,2,0,4,2,0,5,4,2,0,5,2,0,5,4,3,4,2,0,5,1,1,1,4,2,0,4,2,0,1,5,2,0,3,4,3,4,3,1,5,1,1,5,1,4,2,0,5,3,3,3,4,2,0,5,4,2,0,1,5,2,0,1,1,3,3,1,5,2,0,5,3,1,1,1,1,1,1,1,1,1,1,5,3,4,2,0,5,4,2,0,5,4,2,0,1,3,1,5,4,2,0,3,4,2,0,5,3,1,5,1,1,3,3,4,2,0,5,4,3,4,2,0,1,5,1,1,3,1,1,3,3,4,2,0,5,2,0,5,2,0,3,5,2,0,5,4,2,0,5,3,4,2,0,5,4,2,0,5,1,5,1,5,1,1,1,3,1,1,1,5,2,0,5,4,2,0,1,4,2,0,3,4,2,0,5,4,2,0,5,4,2,0,5,1,1,1,3,1,5,2,0,1,3,4,2,0,4,2,0,5,1,5,1,1,4,2,0,3,1,1,1,1]","60","420","12","null","","<div class=""feedback-message""></div><div class=""stimulus-container""><div class=""position-wrapper""><div class=""key-label"">S</div><div class=""position-box "" data-position=""0""></div></div><div class=""position-wrapper""><div class=""key-label"">D</div><div class=""position-box "" data-position=""1""></div></div><div class=""position-wrapper""><div class=""key-label"">F</div><div class=""position-box "" data-position=""2""></div></div><div class=""position-wrapper""><div class=""key-label"">J</div><div class=""position-box "" data-position=""3""></div></div><div class=""position-wrapper""><div class=""key-label"">K</div><div class=""position-box "" data-position=""4""></div></div><div class=""position-wrapper""><div class=""key-label"">L</div><div class=""position-box "" data-position=""5""></div></div></div><div class=""finger-diagram-container"">
			<img src=""assets/finger-diagrams/finger-diagram-6pos.png"" alt=""Finger position guide"" class=""finger-diagram"" />
		</div>","null","","","","","","","",""
"","","","","","practice","stimulus","html-keyboard-response","6","184864","0.0-4.0-0.0-0.0","P_000e32c5ef794b6bd4ba724ecd8b302b585a1b33244f863854caa86473d59737","6975d475053a04ec2a824d54","6975d4f442704de9e9b476a6","6","[[0,0.2273234356477396,1.4382488357004985e-11,0.20981619168212484,0.06519783227405394,0.49766254038169905],[0,0.22736964714484262,1.4389615966943733e-11,0.20984759685851753,0.06520404977486319,0.4975787062073871],[0.9882196383546002,7.505216870414609e-13,1.4258841105232542e-11,0.011780361555829953,5.905431977191516e-11,1.550626783568228e-11],[0.011768424314658198,0.27410027860516395,1.4381596613135696e-11,0.21370829276791165,0.4956618083854289,0.004761195912455649],[0,0.004151376708677999,0.8541519975946235,0.14169662567971403,1.363513216867255e-12,1.562112260929659e-11],[0,0.26705763578310293,0.14585056634172525,0.21315316928175454,0.3739386285926206,7.966607020055105e-13]]","[1.7163490803009984,1.7164586615480488,0.09237731181353706,1.6016287006430234,0.6265709654819551,1.9197818344737418]","[1,3,0,5,3,4,2,0,5,1,3,3,1,5,4,3,4,2,0,5,1,3,4,2,0,3,1,5,3,4,2,0,3,4,2,0,1,1,5,4,2,0,1,5,1,3,4,3,4,2,0,1,5,4,2,0,5,3,3,3,3,4,2,0,3,1,5,4,2,0,1,5,1,3,4,2,0,4,2,0,5,3,4,2,0,5,4,2,0,1,5,3,4,2,0,5,4,2,0,5,4,2,0,3,1,1,3,4,3,1,5,4,3,4,2,0,4,2,0,5,3,1,5,1,5,2,0,3,1,1,3,4,2,0,5,4,2,0,5,4,2,0,5,1,5,2,0,5,2,0,1,5,1,5,1,3,4,2,0,5,4,2,0,3,4,2,0,5,4,2,0,5,4,2,0,1,5,3,1,3,4,3,3,1,1,5,3,1,5,3,3,4,2,0,5,4,3,4,2,0,4,2,0,5,4,2,0,5,2,0,5,4,3,4,2,0,5,1,1,1,4,2,0,4,2,0,1,5,2,0,3,4,3,4,3,1,5,1,1,5,1,4,2,0,5,3,3,3,4,2,0,5,4,2,0,1,5,2,0,1,1,3,3,1,5,2,0,5,3,1,1,1,1,1,1,1,1,1,1,5,3,4,2,0,5,4,2,0,5,4,2,0,1,3,1,5,4,2,0,3,4,2,0,5,3,1,5,1,1,3,3,4,2,0,5,4,3,4,2,0,1,5,1,1,3,1,1,3,3,4,2,0,5,2,0,5,2,0,3,5,2,0,5,4,2,0,5,3,4,2,0,5,4,2,0,5,1,5,1,5,1,1,1,3,1,1,1,5,2,0,5,4,2,0,1,4,2,0,3,4,2,0,5,4,2,0,5,4,2,0,5,1,1,1,3,1,5,2,0,1,3,4,2,0,4,2,0,5,1,5,1,1,4,2,0,3,1,1,1,1]","60","420","12","742","","<div class=""feedback-message""></div><div class=""stimulus-container""><div class=""position-wrapper""><div class=""key-label"">S</div><div class=""position-box "" data-position=""0""></div></div><div class=""position-wrapper""><div class=""key-label"">D</div><div class=""position-box "" data-position=""1""></div></div><div class=""position-wrapper""><div class=""key-label"">F</div><div class=""position-box "" data-position=""2""></div></div><div class=""position-wrapper""><div class=""key-label"">J</div><div class=""position-box "" data-position=""3""></div></div><div class=""position-wrapper""><div class=""key-label"">K</div><div class=""position-box "" data-position=""4""></div></div><div class=""position-wrapper""><div class=""key-label"">L</div><div class=""position-box active"" data-position=""5""></div></div></div><div class=""finger-diagram-container"">
			<img src=""assets/finger-diagrams/finger-diagram-6pos.png"" alt=""Finger position guide"" class=""finger-diagram"" />
		</div>","l","5","l","true","","","","",""
"","","","","","practice","feedback","html-keyboard-response","7","185067","0.0-4.0-0.0-1.0","P_000e32c5ef794b6bd4ba724ecd8b302b585a1b33244f863854caa86473d59737","6975d475053a04ec2a824d54","6975d4f442704de9e9b476a6","6","[[0,0.2273234356477396,1.4382488357004985e-11,0.20981619168212484,0.06519783227405394,0.49766254038169905],[0,0.22736964714484262,1.4389615966943733e-11,0.20984759685851753,0.06520404977486319,0.4975787062073871],[0.9882196383546002,7.505216870414609e-13,1.4258841105232542e-11,0.011780361555829953,5.905431977191516e-11,1.550626783568228e-11],[0.011768424314658198,0.27410027860516395,1.4381596613135696e-11,0.21370829276791165,0.4956618083854289,0.004761195912455649],[0,0.004151376708677999,0.8541519975946235,0.14169662567971403,1.363513216867255e-12,1.562112260929659e-11],[0,0.26705763578310293,0.14585056634172525,0.21315316928175454,0.3739386285926206,7.966607020055105e-13]]","[1.7163490803009984,1.7164586615480488,0.09237731181353706,1.6016287006430234,0.6265709654819551,1.9197818344737418]","[1,3,0,5,3,4,2,0,5,1,3,3,1,5,4,3,4,2,0,5,1,3,4,2,0,3,1,5,3,4,2,0,3,4,2,0,1,1,5,4,2,0,1,5,1,3,4,3,4,2,0,1,5,4,2,0,5,3,3,3,3,4,2,0,3,1,5,4,2,0,1,5,1,3,4,2,0,4,2,0,5,3,4,2,0,5,4,2,0,1,5,3,4,2,0,5,4,2,0,5,4,2,0,3,1,1,3,4,3,1,5,4,3,4,2,0,4,2,0,5,3,1,5,1,5,2,0,3,1,1,3,4,2,0,5,4,2,0,5,4,2,0,5,1,5,2,0,5,2,0,1,5,1,5,1,3,4,2,0,5,4,2,0,3,4,2,0,5,4,2,0,5,4,2,0,1,5,3,1,3,4,3,3,1,1,5,3,1,5,3,3,4,2,0,5,4,3,4,2,0,4,2,0,5,4,2,0,5,2,0,5,4,3,4,2,0,5,1,1,1,4,2,0,4,2,0,1,5,2,0,3,4,3,4,3,1,5,1,1,5,1,4,2,0,5,3,3,3,4,2,0,5,4,2,0,1,5,2,0,1,1,3,3,1,5,2,0,5,3,1,1,1,1,1,1,1,1,1,1,5,3,4,2,0,5,4,2,0,5,4,2,0,1,3,1,5,4,2,0,3,4,2,0,5,3,1,5,1,1,3,3,4,2,0,5,4,3,4,2,0,1,5,1,1,3,1,1,3,3,4,2,0,5,2,0,5,2,0,3,5,2,0,5,4,2,0,5,3,4,2,0,5,4,2,0,5,1,5,1,5,1,1,1,3,1,1,1,5,2,0,5,4,2,0,1,4,2,0,3,4,2,0,5,4,2,0,5,4,2,0,5,1,1,1,3,1,5,2,0,1,3,4,2,0,4,2,0,5,1,5,1,1,4,2,0,3,1,1,1,1]","60","420","12","null","","<div class=""feedback-message""><div class=""feedback-correct"">✓</div></div><div class=""stimulus-container""><div class=""position-wrapper""><div class=""key-label"">S</div><div class=""position-box "" data-position=""0""></div></div><div class=""position-wrapper""><div class=""key-label"">D</div><div class=""position-box "" data-position=""1""></div></div><div class=""position-wrapper""><div class=""key-label"">F</div><div class=""position-box "" data-position=""2""></div></div><div class=""position-wrapper""><div class=""key-label"">J</div><div class=""position-box "" data-position=""3""></div></div><div class=""position-wrapper""><div class=""key-label"">K</div><div class=""position-box "" data-position=""4""></div></div><div class=""position-wrapper""><div class=""key-label"">L</div><div class=""position-box active"" data-position=""5""></div></div></div><div class=""finger-diagram-container"">
			<img src=""assets/finger-diagrams/finger-diagram-6pos.png"" alt=""Finger position guide"" class=""finger-diagram"" />
		</div>","null","","","","","","","",""
"","","","","","practice","rsi","html-keyboard-response","8","185205","0.0-4.0-1.0","P_000e32c5ef794b6bd4ba724ecd8b302b585a1b33244f863854caa86473d59737","6975d475053a04ec2a824d54","6975d4f442704de9e9b476a6","6","[[0,0.2273234356477396,1.4382488357004985e-11,0.20981619168212484,0.06519783227405394,0.49766254038169905],[0,0.22736964714484262,1.4389615966943733e-11,0.20984759685851753,0.06520404977486319,0.4975787062073871],[0.9882196383546002,7.505216870414609e-13,1.4258841105232542e-11,0.011780361555829953,5.905431977191516e-11,1.550626783568228e-11],[0.011768424314658198,0.27410027860516395,1.4381596613135696e-11,0.21370829276791165,0.4956618083854289,0.004761195912455649],[0,0.004151376708677999,0.8541519975946235,0.14169662567971403,1.363513216867255e-12,1.562112260929659e-11],[0,0.26705763578310293,0.14585056634172525,0.21315316928175454,0.3739386285926206,7.966607020055105e-13]]","[1.7163490803009984,1.7164586615480488,0.09237731181353706,1.6016287006430234,0.6265709654819551,1.9197818344737418]","[1,3,0,5,3,4,2,0,5,1,3,3,1,5,4,3,4,2,0,5,1,3,4,2,0,3,1,5,3,4,2,0,3,4,2,0,1,1,5,4,2,0,1,5,1,3,4,3,4,2,0,1,5,4,2,0,5,3,3,3,3,4,2,0,3,1,5,4,2,0,1,5,1,3,4,2,0,4,2,0,5,3,4,2,0,5,4,2,0,1,5,3,4,2,0,5,4,2,0,5,4,2,0,3,1,1,3,4,3,1,5,4,3,4,2,0,4,2,0,5,3,1,5,1,5,2,0,3,1,1,3,4,2,0,5,4,2,0,5,4,2,0,5,1,5,2,0,5,2,0,1,5,1,5,1,3,4,2,0,5,4,2,0,3,4,2,0,5,4,2,0,5,4,2,0,1,5,3,1,3,4,3,3,1,1,5,3,1,5,3,3,4,2,0,5,4,3,4,2,0,4,2,0,5,4,2,0,5,2,0,5,4,3,4,2,0,5,1,1,1,4,2,0,4,2,0,1,5,2,0,3,4,3,4,3,1,5,1,1,5,1,4,2,0,5,3,3,3,4,2,0,5,4,2,0,1,5,2,0,1,1,3,3,1,5,2,0,5,3,1,1,1,1,1,1,1,1,1,1,5,3,4,2,0,5,4,2,0,5,4,2,0,1,3,1,5,4,2,0,3,4,2,0,5,3,1,5,1,1,3,3,4,2,0,5,4,3,4,2,0,1,5,1,1,3,1,1,3,3,4,2,0,5,2,0,5,2,0,3,5,2,0,5,4,2,0,5,3,4,2,0,5,4,2,0,5,1,5,1,5,1,1,1,3,1,1,1,5,2,0,5,4,2,0,1,4,2,0,3,4,2,0,5,4,2,0,5,4,2,0,5,1,1,1,3,1,5,2,0,1,3,4,2,0,4,2,0,5,1,5,1,1,4,2,0,3,1,1,1,1]","60","420","12","null","","<div class=""feedback-message""></div><div class=""stimulus-container""><div class=""position-wrapper""><div class=""key-label"">S</div><div class=""position-box "" data-position=""0""></div></div><div class=""position-wrapper""><div class=""key-label"">D</div><div class=""position-box "" data-position=""1""></div></div><div class=""position-wrapper""><div class=""key-label"">F</div><div class=""position-box "" data-position=""2""></div></div><div class=""position-wrapper""><div class=""key-label"">J</div><div class=""position-box "" data-position=""3""></div></div><div class=""position-wrapper""><div class=""key-label"">K</div><div class=""position-box "" data-position=""4""></div></div><div class=""position-wrapper""><div class=""key-label"">L</div><div class=""position-box "" data-position=""5""></div></div></div><div class=""finger-diagram-container"">
			<img src=""assets/finger-diagrams/finger-diagram-6pos.png"" alt=""Finger position guide"" class=""finger-diagram"" />
		</div>","null","","","","","","","",""
"","","","","","practice","stimulus","html-keyboard-response","9","185777","0.0-5.0-0.0-0.0","P_000e32c5ef794b6bd4ba724ecd8b302b585a1b33244f863854caa86473d59737","6975d475053a04ec2a824d54","6975d4f442704de9e9b476a6","6","[[0,0.2273234356477396,1.4382488357004985e-11,0.20981619168212484,0.06519783227405394,0.49766254038169905],[0,0.22736964714484262,1.4389615966943733e-11,0.20984759685851753,0.06520404977486319,0.4975787062073871],[0.9882196383546002,7.505216870414609e-13,1.4258841105232542e-11,0.011780361555829953,5.905431977191516e-11,1.550626783568228e-11],[0.011768424314658198,0.27410027860516395,1.4381596613135696e-11,0.21370829276791165,0.4956618083854289,0.004761195912455649],[0,0.004151376708677999,0.8541519975946235,0.14169662567971403,1.363513216867255e-12,1.562112260929659e-11],[0,0.26705763578310293,0.14585056634172525,0.21315316928175454,0.3739386285926206,7.966607020055105e-13]]","[1.7163490803009984,1.7164586615480488,0.09237731181353706,1.6016287006430234,0.6265709654819551,1.9197818344737418]","[1,3,0,5,3,4,2,0,5,1,3,3,1,5,4,3,4,2,0,5,1,3,4,2,0,3,1,5,3,4,2,0,3,4,2,0,1,1,5,4,2,0,1,5,1,3,4,3,4,2,0,1,5,4,2,0,5,3,3,3,3,4,2,0,3,1,5,4,2,0,1,5,1,3,4,2,0,4,2,0,5,3,4,2,0,5,4,2,0,1,5,3,4,2,0,5,4,2,0,5,4,2,0,3,1,1,3,4,3,1,5,4,3,4,2,0,4,2,0,5,3,1,5,1,5,2,0,3,1,1,3,4,2,0,5,4,2,0,5,4,2,0,5,1,5,2,0,5,2,0,1,5,1,5,1,3,4,2,0,5,4,2,0,3,4,2,0,5,4,2,0,5,4,2,0,1,5,3,1,3,4,3,3,1,1,5,3,1,5,3,3,4,2,0,5,4,3,4,2,0,4,2,0,5,4,2,0,5,2,0,5,4,3,4,2,0,5,1,1,1,4,2,0,4,2,0,1,5,2,0,3,4,3,4,3,1,5,1,1,5,1,4,2,0,5,3,3,3,4,2,0,5,4,2,0,1,5,2,0,1,1,3,3,1,5,2,0,5,3,1,1,1,1,1,1,1,1,1,1,5,3,4,2,0,5,4,2,0,5,4,2,0,1,3,1,5,4,2,0,3,4,2,0,5,3,1,5,1,1,3,3,4,2,0,5,4,3,4,2,0,1,5,1,1,3,1,1,3,3,4,2,0,5,2,0,5,2,0,3,5,2,0,5,4,2,0,5,3,4,2,0,5,4,2,0,5,1,5,1,5,1,1,1,3,1,1,1,5,2,0,5,4,2,0,1,4,2,0,3,4,2,0,5,4,2,0,5,4,2,0,5,1,1,1,3,1,5,2,0,1,3,4,2,0,4,2,0,5,1,5,1,1,4,2,0,3,1,1,1,1]","60","420","12","571","","<div class=""feedback-message""></div><div class=""stimulus-container""><div class=""position-wrapper""><div class=""key-label"">S</div><div class=""position-box "" data-position=""0""></div></div><div class=""position-wrapper""><div class=""key-label"">D</div><div class=""position-box "" data-position=""1""></div></div><div class=""position-wrapper""><div class=""key-label"">F</div><div class=""position-box "" data-position=""2""></div></div><div class=""position-wrapper""><div class=""key-label"">J</div><div class=""position-box "" data-position=""3""></div></div><div class=""position-wrapper""><div class=""key-label"">K</div><div class=""position-box active"" data-position=""4""></div></div><div class=""position-wrapper""><div class=""key-label"">L</div><div class=""position-box "" data-position=""5""></div></div></div><div class=""finger-diagram-container"">
			<img src=""assets/finger-diagrams/finger-diagram-6pos.png"" alt=""Finger position guide"" class=""finger-diagram"" />
		</div>","k","4","k","true","","","","",""
"","","","","","practice","feedback","html-keyboard-response","10","185982","0.0-5.0-0.0-1.0","P_000e32c5ef794b6bd4ba724ecd8b302b585a1b33244f863854caa86473d59737","6975d475053a04ec2a824d54","6975d4f442704de9e9b476a6","6","[[0,0.2273234356477396,1.4382488357004985e-11,0.20981619168212484,0.06519783227405394,0.49766254038169905],[0,0.22736964714484262,1.4389615966943733e-11,0.20984759685851753,0.06520404977486319,0.4975787062073871],[0.9882196383546002,7.505216870414609e-13,1.4258841105232542e-11,0.011780361555829953,5.905431977191516e-11,1.550626783568228e-11],[0.011768424314658198,0.27410027860516395,1.4381596613135696e-11,0.21370829276791165,0.4956618083854289,0.004761195912455649],[0,0.004151376708677999,0.8541519975946235,0.14169662567971403,1.363513216867255e-12,1.562112260929659e-11],[0,0.26705763578310293,0.14585056634172525,0.21315316928175454,0.3739386285926206,7.966607020055105e-13]]","[1.7163490803009984,1.7164586615480488,0.09237731181353706,1.6016287006430234,0.6265709654819551,1.9197818344737418]","[1,3,0,5,3,4,2,0,5,1,3,3,1,5,4,3,4,2,0,5,1,3,4,2,0,3,1,5,3,4,2,0,3,4,2,0,1,1,5,4,2,0,1,5,1,3,4,3,4,2,0,1,5,4,2,0,5,3,3,3,3,4,2,0,3,1,5,4,2,0,1,5,1,3,4,2,0,4,2,0,5,3,4,2,0,5,4,2,0,1,5,3,4,2,0,5,4,2,0,5,4,2,0,3,1,1,3,4,3,1,5,4,3,4,2,0,4,2,0,5,3,1,5,1,5,2,0,3,1,1,3,4,2,0,5,4,2,0,5,4,2,0,5,1,5,2,0,5,2,0,1,5,1,5,1,3,4,2,0,5,4,2,0,3,4,2,0,5,4,2,0,5,4,2,0,1,5,3,1,3,4,3,3,1,1,5,3,1,5,3,3,4,2,0,5,4,3,4,2,0,4,2,0,5,4,2,0,5,2,0,5,4,3,4,2,0,5,1,1,1,4,2,0,4,2,0,1,5,2,0,3,4,3,4,3,1,5,1,1,5,1,4,2,0,5,3,3,3,4,2,0,5,4,2,0,1,5,2,0,1,1,3,3,1,5,2,0,5,3,1,1,1,1,1,1,1,1,1,1,5,3,4,2,0,5,4,2,0,5,4,2,0,1,3,1,5,4,2,0,3,4,2,0,5,3,1,5,1,1,3,3,4,2,0,5,4,3,4,2,0,1,5,1,1,3,1,1,3,3,4,2,0,5,2,0,5,2,0,3,5,2,0,5,4,2,0,5,3,4,2,0,5,4,2,0,5,1,5,1,5,1,1,1,3,1,1,1,5,2,0,5,4,2,0,1,4,2,0,3,4,2,0,5,4,2,0,5,4,2,0,5,1,1,1,3,1,5,2,0,1,3,4,2,0,4,2,0,5,1,5,1,1,4,2,0,3,1,1,1,1]","60","420","12","null","","<div class=""feedback-message""><div class=""feedback-correct"">✓</div></div><div class=""stimulus-container""><div class=""position-wrapper""><div class=""key-label"">S</div><div class=""position-box "" data-position=""0""></div></div><div class=""position-wrapper""><div class=""key-label"">D</div><div class=""position-box "" data-position=""1""></div></div><div class=""position-wrapper""><div class=""key-label"">F</div><div class=""position-box "" data-position=""2""></div></div><div class=""position-wrapper""><div class=""key-label"">J</div><div class=""position-box "" data-position=""3""></div></div><div class=""position-wrapper""><div class=""key-label"">K</div><div class=""position-box active"" data-position=""4""></div></div><div class=""position-wrapper""><div class=""key-label"">L</div><div class=""position-box "" data-position=""5""></div></div></div><div class=""finger-diagram-container"">
			<img src=""assets/finger-diagrams/finger-diagram-6pos.png"" alt=""Finger position guide"" class=""finger-diagram"" />
		</div>","null","","","","","","","",""
"","","","","","practice","rsi","html-keyboard-response","11","186105","0.0-5.0-1.0","P_000e32c5ef794b6bd4ba724ecd8b302b585a1b33244f863854caa86473d59737","6975d475053a04ec2a824d54","6975d4f442704de9e9b476a6","6","[[0,0.2273234356477396,1.4382488357004985e-11,0.20981619168212484,0.06519783227405394,0.49766254038169905],[0,0.22736964714484262,1.4389615966943733e-11,0.20984759685851753,0.06520404977486319,0.4975787062073871],[0.9882196383546002,7.505216870414609e-13,1.4258841105232542e-11,0.011780361555829953,5.905431977191516e-11,1.550626783568228e-11],[0.011768424314658198,0.27410027860516395,1.4381596613135696e-11,0.21370829276791165,0.4956618083854289,0.004761195912455649],[0,0.004151376708677999,0.8541519975946235,0.14169662567971403,1.363513216867255e-12,1.562112260929659e-11],[0,0.26705763578310293,0.14585056634172525,0.21315316928175454,0.3739386285926206,7.966607020055105e-13]]","[1.7163490803009984,1.7164586615480488,0.09237731181353706,1.6016287006430234,0.6265709654819551,1.9197818344737418]","[1,3,0,5,3,4,2,0,5,1,3,3,1,5,4,3,4,2,0,5,1,3,4,2,0,3,1,5,3,4,2,0,3,4,2,0,1,1,5,4,2,0,1,5,1,3,4,3,4,2,0,1,5,4,2,0,5,3,3,3,3,4,2,0,3,1,5,4,2,0,1,5,1,3,4,2,0,4,2,0,5,3,4,2,0,5,4,2,0,1,5,3,4,2,0,5,4,2,0,5,4,2,0,3,1,1,3,4,3,1,5,4,3,4,2,0,4,2,0,5,3,1,5,1,5,2,0,3,1,1,3,4,2,0,5,4,2,0,5,4,2,0,5,1,5,2,0,5,2,0,1,5,1,5,1,3,4,2,0,5,4,2,0,3,4,2,0,5,4,2,0,5,4,2,0,1,5,3,1,3,4,3,3,1,1,5,3,1,5,3,3,4,2,0,5,4,3,4,2,0,4,2,0,5,4,2,0,5,2,0,5,4,3,4,2,0,5,1,1,1,4,2,0,4,2,0,1,5,2,0,3,4,3,4,3,1,5,1,1,5,1,4,2,0,5,3,3,3,4,2,0,5,4,2,0,1,5,2,0,1,1,3,3,1,5,2,0,5,3,1,1,1,1,1,1,1,1,1,1,5,3,4,2,0,5,4,2,0,5,4,2,0,1,3,1,5,4,2,0,3,4,2,0,5,3,1,5,1,1,3,3,4,2,0,5,4,3,4,2,0,1,5,1,1,3,1,1,3,3,4,2,0,5,2,0,5,2,0,3,5,2,0,5,4,2,0,5,3,4,2,0,5,4,2,0,5,1,5,1,5,1,1,1,3,1,1,1,5,2,0,5,4,2,0,1,4,2,0,3,4,2,0,5,4,2,0,5,4,2,0,5,1,1,1,3,1,5,2,0,1,3,4,2,0,4,2,0,5,1,5,1,1,4,2,0,3,1,1,1,1]","60","420","12","null","","<div class=""feedback-message""></div><div class=""stimulus-container""><div class=""position-wrapper""><div class=""key-label"">S</div><div class=""position-box "" data-position=""0""></div></div><div class=""position-wrapper""><div class=""key-label"">D</div><div class=""position-box "" data-position=""1""></div></div><div class=""position-wrapper""><div class=""key-label"">F</div><div class=""position-box "" data-position=""2""></div></div><div class=""position-wrapper""><div class=""key-label"">J</div><div class=""position-box "" data-position=""3""></div></div><div class=""position-wrapper""><div class=""key-label"">K</div><div class=""position-box "" data-position=""4""></div></div><div class=""position-wrapper""><div class=""key-label"">L</div><div class=""position-box "" data-position=""5""></div></div></div><div class=""finger-diagram-container"">
			<img src=""assets/finger-diagrams/finger-diagram-6pos.png"" alt=""Finger position guide"" class=""finger-diagram"" />
		</div>","null","","","","","","","",""
"","","","","","practice","stimulus","html-keyboard-response","12","186733","0.0-6.0-0.0-0.0","P_000e32c5ef794b6bd4ba724ecd8b302b585a1b33244f863854caa86473d59737","6975d475053a04ec2a824d54","6975d4f442704de9e9b476a6","6","[[0,0.2273234356477396,1.4382488357004985e-11,0.20981619168212484,0.06519783227405394,0.49766254038169905],[0,0.22736964714484262,1.4389615966943733e-11,0.20984759685851753,0.06520404977486319,0.4975787062073871],[0.9882196383546002,7.505216870414609e-13,1.4258841105232542e-11,0.011780361555829953,5.905431977191516e-11,1.550626783568228e-11],[0.011768424314658198,0.27410027860516395,1.4381596613135696e-11,0.21370829276791165,0.4956618083854289,0.004761195912455649],[0,0.004151376708677999,0.8541519975946235,0.14169662567971403,1.363513216867255e-12,1.562112260929659e-11],[0,0.26705763578310293,0.14585056634172525,0.21315316928175454,0.3739386285926206,7.966607020055105e-13]]","[1.7163490803009984,1.7164586615480488,0.09237731181353706,1.6016287006430234,0.6265709654819551,1.9197818344737418]","[1,3,0,5,3,4,2,0,5,1,3,3,1,5,4,3,4,2,0,5,1,3,4,2,0,3,1,5,3,4,2,0,3,4,2,0,1,1,5,4,2,0,1,5,1,3,4,3,4,2,0,1,5,4,2,0,5,3,3,3,3,4,2,0,3,1,5,4,2,0,1,5,1,3,4,2,0,4,2,0,5,3,4,2,0,5,4,2,0,1,5,3,4,2,0,5,4,2,0,5,4,2,0,3,1,1,3,4,3,1,5,4,3,4,2,0,4,2,0,5,3,1,5,1,5,2,0,3,1,1,3,4,2,0,5,4,2,0,5,4,2,0,5,1,5,2,0,5,2,0,1,5,1,5,1,3,4,2,0,5,4,2,0,3,4,2,0,5,4,2,0,5,4,2,0,1,5,3,1,3,4,3,3,1,1,5,3,1,5,3,3,4,2,0,5,4,3,4,2,0,4,2,0,5,4,2,0,5,2,0,5,4,3,4,2,0,5,1,1,1,4,2,0,4,2,0,1,5,2,0,3,4,3,4,3,1,5,1,1,5,1,4,2,0,5,3,3,3,4,2,0,5,4,2,0,1,5,2,0,1,1,3,3,1,5,2,0,5,3,1,1,1,1,1,1,1,1,1,1,5,3,4,2,0,5,4,2,0,5,4,2,0,1,3,1,5,4,2,0,3,4,2,0,5,3,1,5,1,1,3,3,4,2,0,5,4,3,4,2,0,1,5,1,1,3,1,1,3,3,4,2,0,5,2,0,5,2,0,3,5,2,0,5,4,2,0,5,3,4,2,0,5,4,2,0,5,1,5,1,5,1,1,1,3,1,1,1,5,2,0,5,4,2,0,1,4,2,0,3,4,2,0,5,4,2,0,5,4,2,0,5,1,1,1,3,1,5,2,0,1,3,4,2,0,4,2,0,5,1,5,1,1,4,2,0,3,1,1,1,1]","60","420","12","627","","<div class=""feedback-message""></div><div class=""stimulus-container""><div class=""position-wrapper""><div class=""key-label"">S</div><div class=""position-box "" data-position=""0""></div></div><div class=""position-wrapper""><div class=""key-label"">D</div><div class=""position-box active"" data-position=""1""></div></div><div class=""position-wrapper""><div class=""key-label"">F</div><div class=""position-box "" data-position=""2""></div></div><div class=""position-wrapper""><div class=""key-label"">J</div><div class=""position-box "" data-position=""3""></div></div><div class=""position-wrapper""><div class=""key-label"">K</div><div class=""position-box "" data-position=""4""></div></div><div class=""position-wrapper""><div class=""key-label"">L</div><div class=""position-box "" data-position=""5""></div></div></div><div class=""finger-diagram-container"">
			<img src=""assets/finger-diagrams/finger-diagram-6pos.png"" alt=""Finger position guide"" class=""finger-diagram"" />
		</div>","d","1","d","true","","","","",""
"","","","","","practice","feedback","html-keyboard-response","13","186941","0.0-6.0-0.0-1.0","P_000e32c5ef794b6bd4ba724ecd8b302b585a1b33244f863854caa86473d59737","6975d475053a04ec2a824d54","6975d4f442704de9e9b476a6","6","[[0,0.2273234356477396,1.4382488357004985e-11,0.20981619168212484,0.06519783227405394,0.49766254038169905],[0,0.22736964714484262,1.4389615966943733e-11,0.20984759685851753,0.06520404977486319,0.4975787062073871],[0.9882196383546002,7.505216870414609e-13,1.4258841105232542e-11,0.011780361555829953,5.905431977191516e-11,1.550626783568228e-11],[0.011768424314658198,0.27410027860516395,1.4381596613135696e-11,0.21370829276791165,0.4956618083854289,0.004761195912455649],[0,0.004151376708677999,0.8541519975946235,0.14169662567971403,1.363513216867255e-12,1.562112260929659e-11],[0,0.26705763578310293,0.14585056634172525,0.21315316928175454,0.3739386285926206,7.966607020055105e-13]]","[1.7163490803009984,1.7164586615480488,0.09237731181353706,1.6016287006430234,0.6265709654819551,1.9197818344737418]","[1,3,0,5,3,4,2,0,5,1,3,3,1,5,4,3,4,2,0,5,1,3,4,2,0,3,1,5,3,4,2,0,3,4,2,0,1,1,5,4,2,0,1,5,1,3,4,3,4,2,0,1,5,4,2,0,5,3,3,3,3,4,2,0,3,1,5,4,2,0,1,5,1,3,4,2,0,4,2,0,5,3,4,2,0,5,4,2,0,1,5,3,4,2,0,5,4,2,0,5,4,2,0,3,1,1,3,4,3,1,5,4,3,4,2,0,4,2,0,5,3,1,5,1,5,2,0,3,1,1,3,4,2,0,5,4,2,0,5,4,2,0,5,1,5,2,0,5,2,0,1,5,1,5,1,3,4,2,0,5,4,2,0,3,4,2,0,5,4,2,0,5,4,2,0,1,5,3,1,3,4,3,3,1,1,5,3,1,5,3,3,4,2,0,5,4,3,4,2,0,4,2,0,5,4,2,0,5,2,0,5,4,3,4,2,0,5,1,1,1,4,2,0,4,2,0,1,5,2,0,3,4,3,4,3,1,5,1,1,5,1,4,2,0,5,3,3,3,4,2,0,5,4,2,0,1,5,2,0,1,1,3,3,1,5,2,0,5,3,1,1,1,1,1,1,1,1,1,1,5,3,4,2,0,5,4,2,0,5,4,2,0,1,3,1,5,4,2,0,3,4,2,0,5,3,1,5,1,1,3,3,4,2,0,5,4,3,4,2,0,1,5,1,1,3,1,1,3,3,4,2,0,5,2,0,5,2,0,3,5,2,0,5,4,2,0,5,3,4,2,0,5,4,2,0,5,1,5,1,5,1,1,1,3,1,1,1,5,2,0,5,4,2,0,1,4,2,0,3,4,2,0,5,4,2,0,5,4,2,0,5,1,1,1,3,1,5,2,0,1,3,4,2,0,4,2,0,5,1,5,1,1,4,2,0,3,1,1,1,1]","60","420","12","null","","<div class=""feedback-message""><div class=""feedback-correct"">✓</div></div><div class=""stimulus-container""><div class=""position-wrapper""><div class=""key-label"">S</div><div class=""position-box "" data-position=""0""></div></div><div class=""position-wrapper""><div class=""key-label"">D</div><div class=""position-box active"" data-position=""1""></div></div><div class=""position-wrapper""><div class=""key-label"">F</div><div class=""position-box "" data-position=""2""></div></div><div class=""position-wrapper""><div class=""key-label"">J</div><div class=""position-box "" data-position=""3""></div></div><div class=""position-wrapper""><div class=""key-label"">K</div><div class=""position-box "" data-position=""4""></div></div><div class=""position-wrapper""><div class=""key-label"">L</div><div class=""position-box "" data-position=""5""></div></div></div><div class=""finger-diagram-container"">
			<img src=""assets/finger-diagrams/finger-diagram-6pos.png"" alt=""Finger position guide"" class=""finger-diagram"" />
		</div>","null","","","","","","","",""
"","","","","","practice","rsi","html-keyboard-response","14","187071","0.0-6.0-1.0","P_000e32c5ef794b6bd4ba724ecd8b302b585a1b33244f863854caa86473d59737","6975d475053a04ec2a824d54","6975d4f442704de9e9b476a6","6","[[0,0.2273234356477396,1.4382488357004985e-11,0.20981619168212484,0.06519783227405394,0.49766254038169905],[0,0.22736964714484262,1.4389615966943733e-11,0.20984759685851753,0.06520404977486319,0.4975787062073871],[0.9882196383546002,7.505216870414609e-13,1.4258841105232542e-11,0.011780361555829953,5.905431977191516e-11,1.550626783568228e-11],[0.011768424314658198,0.27410027860516395,1.4381596613135696e-11,0.21370829276791165,0.4956618083854289,0.004761195912455649],[0,0.004151376708677999,0.8541519975946235,0.14169662567971403,1.363513216867255e-12,1.562112260929659e-11],[0,0.26705763578310293,0.14585056634172525,0.21315316928175454,0.3739386285926206,7.966607020055105e-13]]","[1.7163490803009984,1.7164586615480488,0.09237731181353706,1.6016287006430234,0.6265709654819551,1.9197818344737418]","[1,3,0,5,3,4,2,0,5,1,3,3,1,5,4,3,4,2,0,5,1,3,4,2,0,3,1,5,3,4,2,0,3,4,2,0,1,1,5,4,2,0,1,5,1,3,4,3,4,2,0,1,5,4,2,0,5,3,3,3,3,4,2,0,3,1,5,4,2,0,1,5,1,3,4,2,0,4,2,0,5,3,4,2,0,5,4,2,0,1,5,3,4,2,0,5,4,2,0,5,4,2,0,3,1,1,3,4,3,1,5,4,3,4,2,0,4,2,0,5,3,1,5,1,5,2,0,3,1,1,3,4,2,0,5,4,2,0,5,4,2,0,5,1,5,2,0,5,2,0,1,5,1,5,1,3,4,2,0,5,4,2,0,3,4,2,0,5,4,2,0,5,4,2,0,1,5,3,1,3,4,3,3,1,1,5,3,1,5,3,3,4,2,0,5,4,3,4,2,0,4,2,0,5,4,2,0,5,2,0,5,4,3,4,2,0,5,1,1,1,4,2,0,4,2,0,1,5,2,0,3,4,3,4,3,1,5,1,1,5,1,4,2,0,5,3,3,3,4,2,0,5,4,2,0,1,5,2,0,1,1,3,3,1,5,2,0,5,3,1,1,1,1,1,1,1,1,1,1,5,3,4,2,0,5,4,2,0,5,4,2,0,1,3,1,5,4,2,0,3,4,2,0,5,3,1,5,1,1,3,3,4,2,0,5,4,3,4,2,0,1,5,1,1,3,1,1,3,3,4,2,0,5,2,0,5,2,0,3,5,2,0,5,4,2,0,5,3,4,2,0,5,4,2,0,5,1,5,1,5,1,1,1,3,1,1,1,5,2,0,5,4,2,0,1,4,2,0,3,4,2,0,5,4,2,0,5,4,2,0,5,1,1,1,3,1,5,2,0,1,3,4,2,0,4,2,0,5,1,5,1,1,4,2,0,3,1,1,1,1]","60","420","12","null","","<div class=""feedback-message""></div><div class=""stimulus-container""><div class=""position-wrapper""><div class=""key-label"">S</div><div class=""position-box "" data-position=""0""></div></div><div class=""position-wrapper""><div class=""key-label"">D</div><div class=""position-box "" data-position=""1""></div></div><div class=""position-wrapper""><div class=""key-label"">F</div><div class=""position-box "" data-position=""2""></div></div><div class=""position-wrapper""><div class=""key-label"">J</div><div class=""position-box "" data-position=""3""></div></div><div class=""position-wrapper""><div class=""key-label"">K</div><div class=""position-box "" data-position=""4""></div></div><div class=""position-wrapper""><div class=""key-label"">L</div><div class=""position-box "" data-position=""5""></div></div></div><div class=""finger-diagram-container"">
			<img src=""assets/finger-diagrams/finger-diagram-6pos.png"" alt=""Finger position guide"" class=""finger-diagram"" />
		</div>","null","","","","","","","",""
"","","","","","practice","stimulus","html-keyboard-response","15","188829","0.0-7.0-0.0-0.0","P_000e32c5ef794b6bd4ba724ecd8b302b585a1b33244f863854caa86473d59737","6975d475053a04ec2a824d54","6975d4f442704de9e9b476a6","6","[[0,0.2273234356477396,1.4382488357004985e-11,0.20981619168212484,0.06519783227405394,0.49766254038169905],[0,0.22736964714484262,1.4389615966943733e-11,0.20984759685851753,0.06520404977486319,0.4975787062073871],[0.9882196383546002,7.505216870414609e-13,1.4258841105232542e-11,0.011780361555829953,5.905431977191516e-11,1.550626783568228e-11],[0.011768424314658198,0.27410027860516395,1.4381596613135696e-11,0.21370829276791165,0.4956618083854289,0.004761195912455649],[0,0.004151376708677999,0.8541519975946235,0.14169662567971403,1.363513216867255e-12,1.562112260929659e-11],[0,0.26705763578310293,0.14585056634172525,0.21315316928175454,0.3739386285926206,7.966607020055105e-13]]","[1.7163490803009984,1.7164586615480488,0.09237731181353706,1.6016287006430234,0.6265709654819551,1.9197818344737418]","[1,3,0,5,3,4,2,0,5,1,3,3,1,5,4,3,4,2,0,5,1,3,4,2,0,3,1,5,3,4,2,0,3,4,2,0,1,1,5,4,2,0,1,5,1,3,4,3,4,2,0,1,5,4,2,0,5,3,3,3,3,4,2,0,3,1,5,4,2,0,1,5,1,3,4,2,0,4,2,0,5,3,4,2,0,5,4,2,0,1,5,3,4,2,0,5,4,2,0,5,4,2,0,3,1,1,3,4,3,1,5,4,3,4,2,0,4,2,0,5,3,1,5,1,5,2,0,3,1,1,3,4,2,0,5,4,2,0,5,4,2,0,5,1,5,2,0,5,2,0,1,5,1,5,1,3,4,2,0,5,4,2,0,3,4,2,0,5,4,2,0,5,4,2,0,1,5,3,1,3,4,3,3,1,1,5,3,1,5,3,3,4,2,0,5,4,3,4,2,0,4,2,0,5,4,2,0,5,2,0,5,4,3,4,2,0,5,1,1,1,4,2,0,4,2,0,1,5,2,0,3,4,3,4,3,1,5,1,1,5,1,4,2,0,5,3,3,3,4,2,0,5,4,2,0,1,5,2,0,1,1,3,3,1,5,2,0,5,3,1,1,1,1,1,1,1,1,1,1,5,3,4,2,0,5,4,2,0,5,4,2,0,1,3,1,5,4,2,0,3,4,2,0,5,3,1,5,1,1,3,3,4,2,0,5,4,3,4,2,0,1,5,1,1,3,1,1,3,3,4,2,0,5,2,0,5,2,0,3,5,2,0,5,4,2,0,5,3,4,2,0,5,4,2,0,5,1,5,1,5,1,1,1,3,1,1,1,5,2,0,5,4,2,0,1,4,2,0,3,4,2,0,5,4,2,0,5,4,2,0,5,1,1,1,3,1,5,2,0,1,3,4,2,0,4,2,0,5,1,5,1,1,4,2,0,3,1,1,1,1]","60","420","12","1757","","<div class=""feedback-message""></div><div class=""stimulus-container""><div class=""position-wrapper""><div class=""key-label"">S</div><div class=""position-box "" data-position=""0""></div></div><div class=""position-wrapper""><div class=""key-label"">D</div><div class=""position-box "" data-position=""1""></div></div><div class=""position-wrapper""><div class=""key-label"">F</div><div class=""position-box active"" data-position=""2""></div></div><div class=""position-wrapper""><div class=""key-label"">J</div><div class=""position-box "" data-position=""3""></div></div><div class=""position-wrapper""><div class=""key-label"">K</div><div class=""position-box "" data-position=""4""></div></div><div class=""position-wrapper""><div class=""key-label"">L</div><div class=""position-box "" data-position=""5""></div></div></div><div class=""finger-diagram-container"">
			<img src=""assets/finger-diagrams/finger-diagram-6pos.png"" alt=""Finger position guide"" class=""finger-diagram"" />
		</div>","f","2","f","true","","","","",""
"","","","","","practice","feedback","html-keyboard-response","16","189031","0.0-7.0-0.0-1.0","P_000e32c5ef794b6bd4ba724ecd8b302b585a1b33244f863854caa86473d59737","6975d475053a04ec2a824d54","6975d4f442704de9e9b476a6","6","[[0,0.2273234356477396,1.4382488357004985e-11,0.20981619168212484,0.06519783227405394,0.49766254038169905],[0,0.22736964714484262,1.4389615966943733e-11,0.20984759685851753,0.06520404977486319,0.4975787062073871],[0.9882196383546002,7.505216870414609e-13,1.4258841105232542e-11,0.011780361555829953,5.905431977191516e-11,1.550626783568228e-11],[0.011768424314658198,0.27410027860516395,1.4381596613135696e-11,0.21370829276791165,0.4956618083854289,0.004761195912455649],[0,0.004151376708677999,0.8541519975946235,0.14169662567971403,1.363513216867255e-12,1.562112260929659e-11],[0,0.26705763578310293,0.14585056634172525,0.21315316928175454,0.3739386285926206,7.966607020055105e-13]]","[1.7163490803009984,1.7164586615480488,0.09237731181353706,1.6016287006430234,0.6265709654819551,1.9197818344737418]","[1,3,0,5,3,4,2,0,5,1,3,3,1,5,4,3,4,2,0,5,1,3,4,2,0,3,1,5,3,4,2,0,3,4,2,0,1,1,5,4,2,0,1,5,1,3,4,3,4,2,0,1,5,4,2,0,5,3,3,3,3,4,2,0,3,1,5,4,2,0,1,5,1,3,4,2,0,4,2,0,5,3,4,2,0,5,4,2,0,1,5,3,4,2,0,5,4,2,0,5,4,2,0,3,1,1,3,4,3,1,5,4,3,4,2,0,4,2,0,5,3,1,5,1,5,2,0,3,1,1,3,4,2,0,5,4,2,0,5,4,2,0,5,1,5,2,0,5,2,0,1,5,1,5,1,3,4,2,0,5,4,2,0,3,4,2,0,5,4,2,0,5,4,2,0,1,5,3,1,3,4,3,3,1,1,5,3,1,5,3,3,4,2,0,5,4,3,4,2,0,4,2,0,5,4,2,0,5,2,0,5,4,3,4,2,0,5,1,1,1,4,2,0,4,2,0,1,5,2,0,3,4,3,4,3,1,5,1,1,5,1,4,2,0,5,3,3,3,4,2,0,5,4,2,0,1,5,2,0,1,1,3,3,1,5,2,0,5,3,1,1,1,1,1,1,1,1,1,1,5,3,4,2,0,5,4,2,0,5,4,2,0,1,3,1,5,4,2,0,3,4,2,0,5,3,1,5,1,1,3,3,4,2,0,5,4,3,4,2,0,1,5,1,1,3,1,1,3,3,4,2,0,5,2,0,5,2,0,3,5,2,0,5,4,2,0,5,3,4,2,0,5,4,2,0,5,1,5,1,5,1,1,1,3,1,1,1,5,2,0,5,4,2,0,1,4,2,0,3,4,2,0,5,4,2,0,5,4,2,0,5,1,1,1,3,1,5,2,0,1,3,4,2,0,4,2,0,5,1,5,1,1,4,2,0,3,1,1,1,1]","60","420","12","null","","<div class=""feedback-message""><div class=""feedback-correct"">✓</div></div><div class=""stimulus-container""><div class=""position-wrapper""><div class=""key-label"">S</div><div class=""position-box "" data-position=""0""></div></div><div class=""position-wrapper""><div class=""key-label"">D</div><div class=""position-box "" data-position=""1""></div></div><div class=""position-wrapper""><div class=""key-label"">F</div><div class=""position-box active"" data-position=""2""></div></div><div class=""position-wrapper""><div class=""key-label"">J</div><div class=""position-box "" data-position=""3""></div></div><div class=""position-wrapper""><div class=""key-label"">K</div><div class=""position-box "" data-position=""4""></div></div><div class=""position-wrapper""><div class=""key-label"">L</div><div class=""position-box "" data-position=""5""></div></div></div><div class=""finger-diagram-container"">
			<img src=""assets/finger-diagrams/finger-diagram-6pos.png"" alt=""Finger position guide"" class=""finger-diagram"" />
		</div>","null","","","","","","","",""
"","","","","","practice","rsi","html-keyboard-response","17","189154","0.0-7.0-1.0","P_000e32c5ef794b6bd4ba724ecd8b302b585a1b33244f863854caa86473d59737","6975d475053a04ec2a824d54","6975d4f442704de9e9b476a6","6","[[0,0.2273234356477396,1.4382488357004985e-11,0.20981619168212484,0.06519783227405394,0.49766254038169905],[0,0.22736964714484262,1.4389615966943733e-11,0.20984759685851753,0.06520404977486319,0.4975787062073871],[0.9882196383546002,7.505216870414609e-13,1.4258841105232542e-11,0.011780361555829953,5.905431977191516e-11,1.550626783568228e-11],[0.011768424314658198,0.27410027860516395,1.4381596613135696e-11,0.21370829276791165,0.4956618083854289,0.004761195912455649],[0,0.004151376708677999,0.8541519975946235,0.14169662567971403,1.363513216867255e-12,1.562112260929659e-11],[0,0.26705763578310293,0.14585056634172525,0.21315316928175454,0.3739386285926206,7.966607020055105e-13]]","[1.7163490803009984,1.7164586615480488,0.09237731181353706,1.6016287006430234,0.6265709654819551,1.9197818344737418]","[1,3,0,5,3,4,2,0,5,1,3,3,1,5,4,3,4,2,0,5,1,3,4,2,0,3,1,5,3,4,2,0,3,4,2,0,1,1,5,4,2,0,1,5,1,3,4,3,4,2,0,1,5,4,2,0,5,3,3,3,3,4,2,0,3,1,5,4,2,0,1,5,1,3,4,2,0,4,2,0,5,3,4,2,0,5,4,2,0,1,5,3,4,2,0,5,4,2,0,5,4,2,0,3,1,1,3,4,3,1,5,4,3,4,2,0,4,2,0,5,3,1,5,1,5,2,0,3,1,1,3,4,2,0,5,4,2,0,5,4,2,0,5,1,5,2,0,5,2,0,1,5,1,5,1,3,4,2,0,5,4,2,0,3,4,2,0,5,4,2,0,5,4,2,0,1,5,3,1,3,4,3,3,1,1,5,3,1,5,3,3,4,2,0,5,4,3,4,2,0,4,2,0,5,4,2,0,5,2,0,5,4,3,4,2,0,5,1,1,1,4,2,0,4,2,0,1,5,2,0,3,4,3,4,3,1,5,1,1,5,1,4,2,0,5,3,3,3,4,2,0,5,4,2,0,1,5,2,0,1,1,3,3,1,5,2,0,5,3,1,1,1,1,1,1,1,1,1,1,5,3,4,2,0,5,4,2,0,5,4,2,0,1,3,1,5,4,2,0,3,4,2,0,5,3,1,5,1,1,3,3,4,2,0,5,4,3,4,2,0,1,5,1,1,3,1,1,3,3,4,2,0,5,2,0,5,2,0,3,5,2,0,5,4,2,0,5,3,4,2,0,5,4,2,0,5,1,5,1,5,1,1,1,3,1,1,1,5,2,0,5,4,2,0,1,4,2,0,3,4,2,0,5,4,2,0,5,4,2,0,5,1,1,1,3,1,5,2,0,1,3,4,2,0,4,2,0,5,1,5,1,1,4,2,0,3,1,1,1,1]","60","420","12","null","","<div class=""feedback-message""></div><div class=""stimulus-container""><div class=""position-wrapper""><div class=""key-label"">S</div><div class=""position-box "" data-position=""0""></div></div><div class=""position-wrapper""><div class=""key-label"">D</div><div class=""position-box "" data-position=""1""></div></div><div class=""position-wrapper""><div class=""key-label"">F</div><div class=""position-box "" data-position=""2""></div></div><div class=""position-wrapper""><div class=""key-label"">J</div><div class=""position-box "" data-position=""3""></div></div><div class=""position-wrapper""><div class=""key-label"">K</div><div class=""position-box "" data-position=""4""></div></div><div class=""position-wrapper""><div class=""key-label"">L</div><div class=""position-box "" data-position=""5""></div></div></div><div class=""finger-diagram-container"">
			<img src=""assets/finger-diagrams/finger-diagram-6pos.png"" alt=""Finger position guide"" class=""finger-diagram"" />
		</div>","null","","","","","","","",""
"","","","","","practice","stimulus","html-keyboard-response","18","190018","0.0-8.0-0.0-0.0","P_000e32c5ef794b6bd4ba724ecd8b302b585a1b33244f863854caa86473d59737","6975d475053a04ec2a824d54","6975d4f442704de9e9b476a6","6","[[0,0.2273234356477396,1.4382488357004985e-11,0.20981619168212484,0.06519783227405394,0.49766254038169905],[0,0.22736964714484262,1.4389615966943733e-11,0.20984759685851753,0.06520404977486319,0.4975787062073871],[0.9882196383546002,7.505216870414609e-13,1.4258841105232542e-11,0.011780361555829953,5.905431977191516e-11,1.550626783568228e-11],[0.011768424314658198,0.27410027860516395,1.4381596613135696e-11,0.21370829276791165,0.4956618083854289,0.004761195912455649],[0,0.004151376708677999,0.8541519975946235,0.14169662567971403,1.363513216867255e-12,1.562112260929659e-11],[0,0.26705763578310293,0.14585056634172525,0.21315316928175454,0.3739386285926206,7.966607020055105e-13]]","[1.7163490803009984,1.7164586615480488,0.09237731181353706,1.6016287006430234,0.6265709654819551,1.9197818344737418]","[1,3,0,5,3,4,2,0,5,1,3,3,1,5,4,3,4,2,0,5,1,3,4,2,0,3,1,5,3,4,2,0,3,4,2,0,1,1,5,4,2,0,1,5,1,3,4,3,4,2,0,1,5,4,2,0,5,3,3,3,3,4,2,0,3,1,5,4,2,0,1,5,1,3,4,2,0,4,2,0,5,3,4,2,0,5,4,2,0,1,5,3,4,2,0,5,4,2,0,5,4,2,0,3,1,1,3,4,3,1,5,4,3,4,2,0,4,2,0,5,3,1,5,1,5,2,0,3,1,1,3,4,2,0,5,4,2,0,5,4,2,0,5,1,5,2,0,5,2,0,1,5,1,5,1,3,4,2,0,5,4,2,0,3,4,2,0,5,4,2,0,5,4,2,0,1,5,3,1,3,4,3,3,1,1,5,3,1,5,3,3,4,2,0,5,4,3,4,2,0,4,2,0,5,4,2,0,5,2,0,5,4,3,4,2,0,5,1,1,1,4,2,0,4,2,0,1,5,2,0,3,4,3,4,3,1,5,1,1,5,1,4,2,0,5,3,3,3,4,2,0,5,4,2,0,1,5,2,0,1,1,3,3,1,5,2,0,5,3,1,1,1,1,1,1,1,1,1,1,5,3,4,2,0,5,4,2,0,5,4,2,0,1,3,1,5,4,2,0,3,4,2,0,5,3,1,5,1,1,3,3,4,2,0,5,4,3,4,2,0,1,5,1,1,3,1,1,3,3,4,2,0,5,2,0,5,2,0,3,5,2,0,5,4,2,0,5,3,4,2,0,5,4,2,0,5,1,5,1,5,1,1,1,3,1,1,1,5,2,0,5,4,2,0,1,4,2,0,3,4,2,0,5,4,2,0,5,4,2,0,5,1,1,1,3,1,5,2,0,1,3,4,2,0,4,2,0,5,1,5,1,1,4,2,0,3,1,1,1,1]","60","420","12","863","","<div class=""feedback-message""></div><div class=""stimulus-container""><div class=""position-wrapper""><div class=""key-label"">S</div><div class=""position-box "" data-position=""0""></div></div><div class=""position-wrapper""><div class=""key-label"">D</div><div class=""position-box "" data-position=""1""></div></div><div class=""position-wrapper""><div class=""key-label"">F</div><div class=""position-box "" data-position=""2""></div></div><div class=""position-wrapper""><div class=""key-label"">J</div><div class=""position-box active"" data-position=""3""></div></div><div class=""position-wrapper""><div class=""key-label"">K</div><div class=""position-box "" data-position=""4""></div></div><div class=""position-wrapper""><div class=""key-label"">L</div><div class=""position-box "" data-position=""5""></div></div></div><div class=""finger-diagram-container"">
			<img src=""assets/finger-diagrams/finger-diagram-6pos.png"" alt=""Finger position guide"" class=""finger-diagram"" />
		</div>","j","3","j","true","","","","",""
"","","","","","practice","feedback","html-keyboard-response","19","190224","0.0-8.0-0.0-1.0","P_000e32c5ef794b6bd4ba724ecd8b302b585a1b33244f863854caa86473d59737","6975d475053a04ec2a824d54","6975d4f442704de9e9b476a6","6","[[0,0.2273234356477396,1.4382488357004985e-11,0.20981619168212484,0.06519783227405394,0.49766254038169905],[0,0.22736964714484262,1.4389615966943733e-11,0.20984759685851753,0.06520404977486319,0.4975787062073871],[0.9882196383546002,7.505216870414609e-13,1.4258841105232542e-11,0.011780361555829953,5.905431977191516e-11,1.550626783568228e-11],[0.011768424314658198,0.27410027860516395,1.4381596613135696e-11,0.21370829276791165,0.4956618083854289,0.004761195912455649],[0,0.004151376708677999,0.8541519975946235,0.14169662567971403,1.363513216867255e-12,1.562112260929659e-11],[0,0.26705763578310293,0.14585056634172525,0.21315316928175454,0.3739386285926206,7.966607020055105e-13]]","[1.7163490803009984,1.7164586615480488,0.09237731181353706,1.6016287006430234,0.6265709654819551,1.9197818344737418]","[1,3,0,5,3,4,2,0,5,1,3,3,1,5,4,3,4,2,0,5,1,3,4,2,0,3,1,5,3,4,2,0,3,4,2,0,1,1,5,4,2,0,1,5,1,3,4,3,4,2,0,1,5,4,2,0,5,3,3,3,3,4,2,0,3,1,5,4,2,0,1,5,1,3,4,2,0,4,2,0,5,3,4,2,0,5,4,2,0,1,5,3,4,2,0,5,4,2,0,5,4,2,0,3,1,1,3,4,3,1,5,4,3,4,2,0,4,2,0,5,3,1,5,1,5,2,0,3,1,1,3,4,2,0,5,4,2,0,5,4,2,0,5,1,5,2,0,5,2,0,1,5,1,5,1,3,4,2,0,5,4,2,0,3,4,2,0,5,4,2,0,5,4,2,0,1,5,3,1,3,4,3,3,1,1,5,3,1,5,3,3,4,2,0,5,4,3,4,2,0,4,2,0,5,4,2,0,5,2,0,5,4,3,4,2,0,5,1,1,1,4,2,0,4,2,0,1,5,2,0,3,4,3,4,3,1,5,1,1,5,1,4,2,0,5,3,3,3,4,2,0,5,4,2,0,1,5,2,0,1,1,3,3,1,5,2,0,5,3,1,1,1,1,1,1,1,1,1,1,5,3,4,2,0,5,4,2,0,5,4,2,0,1,3,1,5,4,2,0,3,4,2,0,5,3,1,5,1,1,3,3,4,2,0,5,4,3,4,2,0,1,5,1,1,3,1,1,3,3,4,2,0,5,2,0,5,2,0,3,5,2,0,5,4,2,0,5,3,4,2,0,5,4,2,0,5,1,5,1,5,1,1,1,3,1,1,1,5,2,0,5,4,2,0,1,4,2,0,3,4,2,0,5,4,2,0,5,4,2,0,5,1,1,1,3,1,5,2,0,1,3,4,2,0,4,2,0,5,1,5,1,1,4,2,0,3,1,1,1,1]","60","420","12","null","","<div class=""feedback-message""><div class=""feedback-correct"">✓</div></div><div class=""stimulus-container""><div class=""position-wrapper""><div class=""key-label"">S</div><div class=""position-box "" data-position=""0""></div></div><div class=""position-wrapper""><div class=""key-label"">D</div><div class=""position-box "" data-position=""1""></div></div><div class=""position-wrapper""><div class=""key-label"">F</div><div class=""position-box "" data-position=""2""></div></div><div class=""position-wrapper""><div class=""key-label"">J</div><div class=""position-box active"" data-position=""3""></div></div><div class=""position-wrapper""><div class=""key-label"">K</div><div class=""position-box "" data-position=""4""></div></div><div class=""position-wrapper""><div class=""key-label"">L</div><div class=""position-box "" data-position=""5""></div></div></div><div class=""finger-diagram-container"">
			<img src=""assets/finger-diagrams/finger-diagram-6pos.png"" alt=""Finger position guide"" class=""finger-diagram"" />
		</div>","null","","","","","","","",""
"","","","","","practice","rsi","html-keyboard-response","20","190353","0.0-8.0-1.0","P_000e32c5ef794b6bd4ba724ecd8b302b585a1b33244f863854caa86473d59737","6975d475053a04ec2a824d54","6975d4f442704de9e9b476a6","6","[[0,0.2273234356477396,1.4382488357004985e-11,0.20981619168212484,0.06519783227405394,0.49766254038169905],[0,0.22736964714484262,1.4389615966943733e-11,0.20984759685851753,0.06520404977486319,0.4975787062073871],[0.9882196383546002,7.505216870414609e-13,1.4258841105232542e-11,0.011780361555829953,5.905431977191516e-11,1.550626783568228e-11],[0.011768424314658198,0.27410027860516395,1.4381596613135696e-11,0.21370829276791165,0.4956618083854289,0.004761195912455649],[0,0.004151376708677999,0.8541519975946235,0.14169662567971403,1.363513216867255e-12,1.562112260929659e-11],[0,0.26705763578310293,0.14585056634172525,0.21315316928175454,0.3739386285926206,7.966607020055105e-13]]","[1.7163490803009984,1.7164586615480488,0.09237731181353706,1.6016287006430234,0.6265709654819551,1.9197818344737418]","[1,3,0,5,3,4,2,0,5,1,3,3,1,5,4,3,4,2,0,5,1,3,4,2,0,3,1,5,3,4,2,0,3,4,2,0,1,1,5,4,2,0,1,5,1,3,4,3,4,2,0,1,5,4,2,0,5,3,3,3,3,4,2,0,3,1,5,4,2,0,1,5,1,3,4,2,0,4,2,0,5,3,4,2,0,5,4,2,0,1,5,3,4,2,0,5,4,2,0,5,4,2,0,3,1,1,3,4,3,1,5,4,3,4,2,0,4,2,0,5,3,1,5,1,5,2,0,3,1,1,3,4,2,0,5,4,2,0,5,4,2,0,5,1,5,2,0,5,2,0,1,5,1,5,1,3,4,2,0,5,4,2,0,3,4,2,0,5,4,2,0,5,4,2,0,1,5,3,1,3,4,3,3,1,1,5,3,1,5,3,3,4,2,0,5,4,3,4,2,0,4,2,0,5,4,2,0,5,2,0,5,4,3,4,2,0,5,1,1,1,4,2,0,4,2,0,1,5,2,0,3,4,3,4,3,1,5,1,1,5,1,4,2,0,5,3,3,3,4,2,0,5,4,2,0,1,5,2,0,1,1,3,3,1,5,2,0,5,3,1,1,1,1,1,1,1,1,1,1,5,3,4,2,0,5,4,2,0,5,4,2,0,1,3,1,5,4,2,0,3,4,2,0,5,3,1,5,1,1,3,3,4,2,0,5,4,3,4,2,0,1,5,1,1,3,1,1,3,3,4,2,0,5,2,0,5,2,0,3,5,2,0,5,4,2,0,5,3,4,2,0,5,4,2,0,5,1,5,1,5,1,1,1,3,1,1,1,5,2,0,5,4,2,0,1,4,2,0,3,4,2,0,5,4,2,0,5,4,2,0,5,1,1,1,3,1,5,2,0,1,3,4,2,0,4,2,0,5,1,5,1,1,4,2,0,3,1,1,1,1]","60","420","12","null","","<div class=""feedback-message""></div><div class=""stimulus-container""><div class=""position-wrapper""><div class=""key-label"">S</div><div class=""position-box "" data-position=""0""></div></div><div class=""position-wrapper""><div class=""key-label"">D</div><div class=""position-box "" data-position=""1""></div></div><div class=""position-wrapper""><div class=""key-label"">F</div><div class=""position-box "" data-position=""2""></div></div><div class=""position-wrapper""><div class=""key-label"">J</div><div class=""position-box "" data-position=""3""></div></div><div class=""position-wrapper""><div class=""key-label"">K</div><div class=""position-box "" data-position=""4""></div></div><div class=""position-wrapper""><div class=""key-label"">L</div><div class=""position-box "" data-position=""5""></div></div></div><div class=""finger-diagram-container"">
			<img src=""assets/finger-diagrams/finger-diagram-6pos.png"" alt=""Finger position guide"" class=""finger-diagram"" />
		</div>","null","","","","","","","",""
"","","","","","practice","stimulus","html-keyboard-response","21","190908","0.0-9.0-0.0-0.0","P_000e32c5ef794b6bd4ba724ecd8b302b585a1b33244f863854caa86473d59737","6975d475053a04ec2a824d54","6975d4f442704de9e9b476a6","6","[[0,0.2273234356477396,1.4382488357004985e-11,0.20981619168212484,0.06519783227405394,0.49766254038169905],[0,0.22736964714484262,1.4389615966943733e-11,0.20984759685851753,0.06520404977486319,0.4975787062073871],[0.9882196383546002,7.505216870414609e-13,1.4258841105232542e-11,0.011780361555829953,5.905431977191516e-11,1.550626783568228e-11],[0.011768424314658198,0.27410027860516395,1.4381596613135696e-11,0.21370829276791165,0.4956618083854289,0.004761195912455649],[0,0.004151376708677999,0.8541519975946235,0.14169662567971403,1.363513216867255e-12,1.562112260929659e-11],[0,0.26705763578310293,0.14585056634172525,0.21315316928175454,0.3739386285926206,7.966607020055105e-13]]","[1.7163490803009984,1.7164586615480488,0.09237731181353706,1.6016287006430234,0.6265709654819551,1.9197818344737418]","[1,3,0,5,3,4,2,0,5,1,3,3,1,5,4,3,4,2,0,5,1,3,4,2,0,3,1,5,3,4,2,0,3,4,2,0,1,1,5,4,2,0,1,5,1,3,4,3,4,2,0,1,5,4,2,0,5,3,3,3,3,4,2,0,3,1,5,4,2,0,1,5,1,3,4,2,0,4,2,0,5,3,4,2,0,5,4,2,0,1,5,3,4,2,0,5,4,2,0,5,4,2,0,3,1,1,3,4,3,1,5,4,3,4,2,0,4,2,0,5,3,1,5,1,5,2,0,3,1,1,3,4,2,0,5,4,2,0,5,4,2,0,5,1,5,2,0,5,2,0,1,5,1,5,1,3,4,2,0,5,4,2,0,3,4,2,0,5,4,2,0,5,4,2,0,1,5,3,1,3,4,3,3,1,1,5,3,1,5,3,3,4,2,0,5,4,3,4,2,0,4,2,0,5,4,2,0,5,2,0,5,4,3,4,2,0,5,1,1,1,4,2,0,4,2,0,1,5,2,0,3,4,3,4,3,1,5,1,1,5,1,4,2,0,5,3,3,3,4,2,0,5,4,2,0,1,5,2,0,1,1,3,3,1,5,2,0,5,3,1,1,1,1,1,1,1,1,1,1,5,3,4,2,0,5,4,2,0,5,4,2,0,1,3,1,5,4,2,0,3,4,2,0,5,3,1,5,1,1,3,3,4,2,0,5,4,3,4,2,0,1,5,1,1,3,1,1,3,3,4,2,0,5,2,0,5,2,0,3,5,2,0,5,4,2,0,5,3,4,2,0,5,4,2,0,5,1,5,1,5,1,1,1,3,1,1,1,5,2,0,5,4,2,0,1,4,2,0,3,4,2,0,5,4,2,0,5,4,2,0,5,1,1,1,3,1,5,2,0,1,3,4,2,0,4,2,0,5,1,5,1,1,4,2,0,3,1,1,1,1]","60","420","12","554","","<div class=""feedback-message""></div><div class=""stimulus-container""><div class=""position-wrapper""><div class=""key-label"">S</div><div class=""position-box "" data-position=""0""></div></div><div class=""position-wrapper""><div class=""key-label"">D</div><div class=""position-box "" data-position=""1""></div></div><div class=""position-wrapper""><div class=""key-label"">F</div><div class=""position-box "" data-position=""2""></div></div><div class=""position-wrapper""><div class=""key-label"">J</div><div class=""position-box active"" data-position=""3""></div></div><div class=""position-wrapper""><div class=""key-label"">K</div><div class=""position-box "" data-position=""4""></div></div><div class=""position-wrapper""><div class=""key-label"">L</div><div class=""position-box "" data-position=""5""></div></div></div><div class=""finger-diagram-container"">
			<img src=""assets/finger-diagrams/finger-diagram-6pos.png"" alt=""Finger position guide"" class=""finger-diagram"" />
		</div>","j","3","j","true","","","","",""
"","","","","","practice","feedback","html-keyboard-response","22","191116","0.0-9.0-0.0-1.0","P_000e32c5ef794b6bd4ba724ecd8b302b585a1b33244f863854caa86473d59737","6975d475053a04ec2a824d54","6975d4f442704de9e9b476a6","6","[[0,0.2273234356477396,1.4382488357004985e-11,0.20981619168212484,0.06519783227405394,0.49766254038169905],[0,0.22736964714484262,1.4389615966943733e-11,0.20984759685851753,0.06520404977486319,0.4975787062073871],[0.9882196383546002,7.505216870414609e-13,1.4258841105232542e-11,0.011780361555829953,5.905431977191516e-11,1.550626783568228e-11],[0.011768424314658198,0.27410027860516395,1.4381596613135696e-11,0.21370829276791165,0.4956618083854289,0.004761195912455649],[0,0.004151376708677999,0.8541519975946235,0.14169662567971403,1.363513216867255e-12,1.562112260929659e-11],[0,0.26705763578310293,0.14585056634172525,0.21315316928175454,0.3739386285926206,7.966607020055105e-13]]","[1.7163490803009984,1.7164586615480488,0.09237731181353706,1.6016287006430234,0.6265709654819551,1.9197818344737418]","[1,3,0,5,3,4,2,0,5,1,3,3,1,5,4,3,4,2,0,5,1,3,4,2,0,3,1,5,3,4,2,0,3,4,2,0,1,1,5,4,2,0,1,5,1,3,4,3,4,2,0,1,5,4,2,0,5,3,3,3,3,4,2,0,3,1,5,4,2,0,1,5,1,3,4,2,0,4,2,0,5,3,4,2,0,5,4,2,0,1,5,3,4,2,0,5,4,2,0,5,4,2,0,3,1,1,3,4,3,1,5,4,3,4,2,0,4,2,0,5,3,1,5,1,5,2,0,3,1,1,3,4,2,0,5,4,2,0,5,4,2,0,5,1,5,2,0,5,2,0,1,5,1,5,1,3,4,2,0,5,4,2,0,3,4,2,0,5,4,2,0,5,4,2,0,1,5,3,1,3,4,3,3,1,1,5,3,1,5,3,3,4,2,0,5,4,3,4,2,0,4,2,0,5,4,2,0,5,2,0,5,4,3,4,2,0,5,1,1,1,4,2,0,4,2,0,1,5,2,0,3,4,3,4,3,1,5,1,1,5,1,4,2,0,5,3,3,3,4,2,0,5,4,2,0,1,5,2,0,1,1,3,3,1,5,2,0,5,3,1,1,1,1,1,1,1,1,1,1,5,3,4,2,0,5,4,2,0,5,4,2,0,1,3,1,5,4,2,0,3,4,2,0,5,3,1,5,1,1,3,3,4,2,0,5,4,3,4,2,0,1,5,1,1,3,1,1,3,3,4,2,0,5,2,0,5,2,0,3,5,2,0,5,4,2,0,5,3,4,2,0,5,4,2,0,5,1,5,1,5,1,1,1,3,1,1,1,5,2,0,5,4,2,0,1,4,2,0,3,4,2,0,5,4,2,0,5,4,2,0,5,1,1,1,3,1,5,2,0,1,3,4,2,0,4,2,0,5,1,5,1,1,4,2,0,3,1,1,1,1]","60","420","12","null","","<div class=""feedback-message""><div class=""feedback-correct"">✓</div></div><div class=""stimulus-container""><div class=""position-wrapper""><div class=""key-label"">S</div><div class=""position-box "" data-position=""0""></div></div><div class=""position-wrapper""><div class=""key-label"">D</div><div class=""position-box "" data-position=""1""></div></div><div class=""position-wrapper""><div class=""key-label"">F</div><div class=""position-box "" data-position=""2""></div></div><div class=""position-wrapper""><div class=""key-label"">J</div><div class=""position-box active"" data-position=""3""></div></div><div class=""position-wrapper""><div class=""key-label"">K</div><div class=""position-box "" data-position=""4""></div></div><div class=""position-wrapper""><div class=""key-label"">L</div><div class=""position-box "" data-position=""5""></div></div></div><div class=""finger-diagram-container"">
			<img src=""assets/finger-diagrams/finger-diagram-6pos.png"" alt=""Finger position guide"" class=""finger-diagram"" />
		</div>","null","","","","","","","",""
"","","","","","practice","rsi","html-keyboard-response","23","191237","0.0-9.0-1.0","P_000e32c5ef794b6bd4ba724ecd8b302b585a1b33244f863854caa86473d59737","6975d475053a04ec2a824d54","6975d4f442704de9e9b476a6","6","[[0,0.2273234356477396,1.4382488357004985e-11,0.20981619168212484,0.06519783227405394,0.49766254038169905],[0,0.22736964714484262,1.4389615966943733e-11,0.20984759685851753,0.06520404977486319,0.4975787062073871],[0.9882196383546002,7.505216870414609e-13,1.4258841105232542e-11,0.011780361555829953,5.905431977191516e-11,1.550626783568228e-11],[0.011768424314658198,0.27410027860516395,1.4381596613135696e-11,0.21370829276791165,0.4956618083854289,0.004761195912455649],[0,0.004151376708677999,0.8541519975946235,0.14169662567971403,1.363513216867255e-12,1.562112260929659e-11],[0,0.26705763578310293,0.14585056634172525,0.21315316928175454,0.3739386285926206,7.966607020055105e-13]]","[1.7163490803009984,1.7164586615480488,0.09237731181353706,1.6016287006430234,0.6265709654819551,1.9197818344737418]","[1,3,0,5,3,4,2,0,5,1,3,3,1,5,4,3,4,2,0,5,1,3,4,2,0,3,1,5,3,4,2,0,3,4,2,0,1,1,5,4,2,0,1,5,1,3,4,3,4,2,0,1,5,4,2,0,5,3,3,3,3,4,2,0,3,1,5,4,2,0,1,5,1,3,4,2,0,4,2,0,5,3,4,2,0,5,4,2,0,1,5,3,4,2,0,5,4,2,0,5,4,2,0,3,1,1,3,4,3,1,5,4,3,4,2,0,4,2,0,5,3,1,5,1,5,2,0,3,1,1,3,4,2,0,5,4,2,0,5,4,2,0,5,1,5,2,0,5,2,0,1,5,1,5,1,3,4,2,0,5,4,2,0,3,4,2,0,5,4,2,0,5,4,2,0,1,5,3,1,3,4,3,3,1,1,5,3,1,5,3,3,4,2,0,5,4,3,4,2,0,4,2,0,5,4,2,0,5,2,0,5,4,3,4,2,0,5,1,1,1,4,2,0,4,2,0,1,5,2,0,3,4,3,4,3,1,5,1,1,5,1,4,2,0,5,3,3,3,4,2,0,5,4,2,0,1,5,2,0,1,1,3,3,1,5,2,0,5,3,1,1,1,1,1,1,1,1,1,1,5,3,4,2,0,5,4,2,0,5,4,2,0,1,3,1,5,4,2,0,3,4,2,0,5,3,1,5,1,1,3,3,4,2,0,5,4,3,4,2,0,1,5,1,1,3,1,1,3,3,4,2,0,5,2,0,5,2,0,3,5,2,0,5,4,2,0,5,3,4,2,0,5,4,2,0,5,1,5,1,5,1,1,1,3,1,1,1,5,2,0,5,4,2,0,1,4,2,0,3,4,2,0,5,4,2,0,5,4,2,0,5,1,1,1,3,1,5,2,0,1,3,4,2,0,4,2,0,5,1,5,1,1,4,2,0,3,1,1,1,1]","60","420","12","null","","<div class=""feedback-message""></div><div class=""stimulus-container""><div class=""position-wrapper""><div class=""key-label"">S</div><div class=""position-box "" data-position=""0""></div></div><div class=""position-wrapper""><div class=""key-label"">D</div><div class=""position-box "" data-position=""1""></div></div><div class=""position-wrapper""><div class=""key-label"">F</div><div class=""position-box "" data-position=""2""></div></div><div class=""position-wrapper""><div class=""key-label"">J</div><div class=""position-box "" data-position=""3""></div></div><div class=""position-wrapper""><div class=""key-label"">K</div><div class=""position-box "" data-position=""4""></div></div><div class=""position-wrapper""><div class=""key-label"">L</div><div class=""position-box "" data-position=""5""></div></div></div><div class=""finger-diagram-container"">
			<img src=""assets/finger-diagrams/finger-diagram-6pos.png"" alt=""Finger position guide"" class=""finger-diagram"" />
		</div>","null","","","","","","","",""
"","","","","","practice","stimulus","html-keyboard-response","24","191945","0.0-10.0-0.0-0.0","P_000e32c5ef794b6bd4ba724ecd8b302b585a1b33244f863854caa86473d59737","6975d475053a04ec2a824d54","6975d4f442704de9e9b476a6","6","[[0,0.2273234356477396,1.4382488357004985e-11,0.20981619168212484,0.06519783227405394,0.49766254038169905],[0,0.22736964714484262,1.4389615966943733e-11,0.20984759685851753,0.06520404977486319,0.4975787062073871],[0.9882196383546002,7.505216870414609e-13,1.4258841105232542e-11,0.011780361555829953,5.905431977191516e-11,1.550626783568228e-11],[0.011768424314658198,0.27410027860516395,1.4381596613135696e-11,0.21370829276791165,0.4956618083854289,0.004761195912455649],[0,0.004151376708677999,0.8541519975946235,0.14169662567971403,1.363513216867255e-12,1.562112260929659e-11],[0,0.26705763578310293,0.14585056634172525,0.21315316928175454,0.3739386285926206,7.966607020055105e-13]]","[1.7163490803009984,1.7164586615480488,0.09237731181353706,1.6016287006430234,0.6265709654819551,1.9197818344737418]","[1,3,0,5,3,4,2,0,5,1,3,3,1,5,4,3,4,2,0,5,1,3,4,2,0,3,1,5,3,4,2,0,3,4,2,0,1,1,5,4,2,0,1,5,1,3,4,3,4,2,0,1,5,4,2,0,5,3,3,3,3,4,2,0,3,1,5,4,2,0,1,5,1,3,4,2,0,4,2,0,5,3,4,2,0,5,4,2,0,1,5,3,4,2,0,5,4,2,0,5,4,2,0,3,1,1,3,4,3,1,5,4,3,4,2,0,4,2,0,5,3,1,5,1,5,2,0,3,1,1,3,4,2,0,5,4,2,0,5,4,2,0,5,1,5,2,0,5,2,0,1,5,1,5,1,3,4,2,0,5,4,2,0,3,4,2,0,5,4,2,0,5,4,2,0,1,5,3,1,3,4,3,3,1,1,5,3,1,5,3,3,4,2,0,5,4,3,4,2,0,4,2,0,5,4,2,0,5,2,0,5,4,3,4,2,0,5,1,1,1,4,2,0,4,2,0,1,5,2,0,3,4,3,4,3,1,5,1,1,5,1,4,2,0,5,3,3,3,4,2,0,5,4,2,0,1,5,2,0,1,1,3,3,1,5,2,0,5,3,1,1,1,1,1,1,1,1,1,1,5,3,4,2,0,5,4,2,0,5,4,2,0,1,3,1,5,4,2,0,3,4,2,0,5,3,1,5,1,1,3,3,4,2,0,5,4,3,4,2,0,1,5,1,1,3,1,1,3,3,4,2,0,5,2,0,5,2,0,3,5,2,0,5,4,2,0,5,3,4,2,0,5,4,2,0,5,1,5,1,5,1,1,1,3,1,1,1,5,2,0,5,4,2,0,1,4,2,0,3,4,2,0,5,4,2,0,5,4,2,0,5,1,1,1,3,1,5,2,0,1,3,4,2,0,4,2,0,5,1,5,1,1,4,2,0,3,1,1,1,1]","60","420","12","707","","<div class=""feedback-message""></div><div class=""stimulus-container""><div class=""position-wrapper""><div class=""key-label"">S</div><div class=""position-box "" data-position=""0""></div></div><div class=""position-wrapper""><div class=""key-label"">D</div><div class=""position-box active"" data-position=""1""></div></div><div class=""position-wrapper""><div class=""key-label"">F</div><div class=""position-box "" data-position=""2""></div></div><div class=""position-wrapper""><div class=""key-label"">J</div><div class=""position-box "" data-position=""3""></div></div><div class=""position-wrapper""><div class=""key-label"">K</div><div class=""position-box "" data-position=""4""></div></div><div class=""position-wrapper""><div class=""key-label"">L</div><div class=""position-box "" data-position=""5""></div></div></div><div class=""finger-diagram-container"">
			<img src=""assets/finger-diagrams/finger-diagram-6pos.png"" alt=""Finger position guide"" class=""finger-diagram"" />
		</div>","d","1","d","true","","","","",""
"","","","","","practice","feedback","html-keyboard-response","25","192148","0.0-10.0-0.0-1.0","P_000e32c5ef794b6bd4ba724ecd8b302b585a1b33244f863854caa86473d59737","6975d475053a04ec2a824d54","6975d4f442704de9e9b476a6","6","[[0,0.2273234356477396,1.4382488357004985e-11,0.20981619168212484,0.06519783227405394,0.49766254038169905],[0,0.22736964714484262,1.4389615966943733e-11,0.20984759685851753,0.06520404977486319,0.4975787062073871],[0.9882196383546002,7.505216870414609e-13,1.4258841105232542e-11,0.011780361555829953,5.905431977191516e-11,1.550626783568228e-11],[0.011768424314658198,0.27410027860516395,1.4381596613135696e-11,0.21370829276791165,0.4956618083854289,0.004761195912455649],[0,0.004151376708677999,0.8541519975946235,0.14169662567971403,1.363513216867255e-12,1.562112260929659e-11],[0,0.26705763578310293,0.14585056634172525,0.21315316928175454,0.3739386285926206,7.966607020055105e-13]]","[1.7163490803009984,1.7164586615480488,0.09237731181353706,1.6016287006430234,0.6265709654819551,1.9197818344737418]","[1,3,0,5,3,4,2,0,5,1,3,3,1,5,4,3,4,2,0,5,1,3,4,2,0,3,1,5,3,4,2,0,3,4,2,0,1,1,5,4,2,0,1,5,1,3,4,3,4,2,0,1,5,4,2,0,5,3,3,3,3,4,2,0,3,1,5,4,2,0,1,5,1,3,4,2,0,4,2,0,5,3,4,2,0,5,4,2,0,1,5,3,4,2,0,5,4,2,0,5,4,2,0,3,1,1,3,4,3,1,5,4,3,4,2,0,4,2,0,5,3,1,5,1,5,2,0,3,1,1,3,4,2,0,5,4,2,0,5,4,2,0,5,1,5,2,0,5,2,0,1,5,1,5,1,3,4,2,0,5,4,2,0,3,4,2,0,5,4,2,0,5,4,2,0,1,5,3,1,3,4,3,3,1,1,5,3,1,5,3,3,4,2,0,5,4,3,4,2,0,4,2,0,5,4,2,0,5,2,0,5,4,3,4,2,0,5,1,1,1,4,2,0,4,2,0,1,5,2,0,3,4,3,4,3,1,5,1,1,5,1,4,2,0,5,3,3,3,4,2,0,5,4,2,0,1,5,2,0,1,1,3,3,1,5,2,0,5,3,1,1,1,1,1,1,1,1,1,1,5,3,4,2,0,5,4,2,0,5,4,2,0,1,3,1,5,4,2,0,3,4,2,0,5,3,1,5,1,1,3,3,4,2,0,5,4,3,4,2,0,1,5,1,1,3,1,1,3,3,4,2,0,5,2,0,5,2,0,3,5,2,0,5,4,2,0,5,3,4,2,0,5,4,2,0,5,1,5,1,5,1,1,1,3,1,1,1,5,2,0,5,4,2,0,1,4,2,0,3,4,2,0,5,4,2,0,5,4,2,0,5,1,1,1,3,1,5,2,0,1,3,4,2,0,4,2,0,5,1,5,1,1,4,2,0,3,1,1,1,1]","60","420","12","null","","<div class=""feedback-message""><div class=""feedback-correct"">✓</div></div><div class=""stimulus-container""><div class=""position-wrapper""><div class=""key-label"">S</div><div class=""position-box "" data-position=""0""></div></div><div class=""position-wrapper""><div class=""key-label"">D</div><div class=""position-box active"" data-position=""1""></div></div><div class=""position-wrapper""><div class=""key-label"">F</div><div class=""position-box "" data-position=""2""></div></div><div class=""position-wrapper""><div class=""key-label"">J</div><div class=""position-box "" data-position=""3""></div></div><div class=""position-wrapper""><div class=""key-label"">K</div><div class=""position-box "" data-position=""4""></div></div><div class=""position-wrapper""><div class=""key-label"">L</div><div class=""position-box "" data-position=""5""></div></div></div><div class=""finger-diagram-container"">
			<img src=""assets/finger-diagrams/finger-diagram-6pos.png"" alt=""Finger position guide"" class=""finger-diagram"" />
		</div>","null","","","","","","","",""
"","","","","","practice","rsi","html-keyboard-response","26","192269","0.0-10.0-1.0","P_000e32c5ef794b6bd4ba724ecd8b302b585a1b33244f863854caa86473d59737","6975d475053a04ec2a824d54","6975d4f442704de9e9b476a6","6","[[0,0.2273234356477396,1.4382488357004985e-11,0.20981619168212484,0.06519783227405394,0.49766254038169905],[0,0.22736964714484262,1.4389615966943733e-11,0.20984759685851753,0.06520404977486319,0.4975787062073871],[0.9882196383546002,7.505216870414609e-13,1.4258841105232542e-11,0.011780361555829953,5.905431977191516e-11,1.550626783568228e-11],[0.011768424314658198,0.27410027860516395,1.4381596613135696e-11,0.21370829276791165,0.4956618083854289,0.004761195912455649],[0,0.004151376708677999,0.8541519975946235,0.14169662567971403,1.363513216867255e-12,1.562112260929659e-11],[0,0.26705763578310293,0.14585056634172525,0.21315316928175454,0.3739386285926206,7.966607020055105e-13]]","[1.7163490803009984,1.7164586615480488,0.09237731181353706,1.6016287006430234,0.6265709654819551,1.9197818344737418]","[1,3,0,5,3,4,2,0,5,1,3,3,1,5,4,3,4,2,0,5,1,3,4,2,0,3,1,5,3,4,2,0,3,4,2,0,1,1,5,4,2,0,1,5,1,3,4,3,4,2,0,1,5,4,2,0,5,3,3,3,3,4,2,0,3,1,5,4,2,0,1,5,1,3,4,2,0,4,2,0,5,3,4,2,0,5,4,2,0,1,5,3,4,2,0,5,4,2,0,5,4,2,0,3,1,1,3,4,3,1,5,4,3,4,2,0,4,2,0,5,3,1,5,1,5,2,0,3,1,1,3,4,2,0,5,4,2,0,5,4,2,0,5,1,5,2,0,5,2,0,1,5,1,5,1,3,4,2,0,5,4,2,0,3,4,2,0,5,4,2,0,5,4,2,0,1,5,3,1,3,4,3,3,1,1,5,3,1,5,3,3,4,2,0,5,4,3,4,2,0,4,2,0,5,4,2,0,5,2,0,5,4,3,4,2,0,5,1,1,1,4,2,0,4,2,0,1,5,2,0,3,4,3,4,3,1,5,1,1,5,1,4,2,0,5,3,3,3,4,2,0,5,4,2,0,1,5,2,0,1,1,3,3,1,5,2,0,5,3,1,1,1,1,1,1,1,1,1,1,5,3,4,2,0,5,4,2,0,5,4,2,0,1,3,1,5,4,2,0,3,4,2,0,5,3,1,5,1,1,3,3,4,2,0,5,4,3,4,2,0,1,5,1,1,3,1,1,3,3,4,2,0,5,2,0,5,2,0,3,5,2,0,5,4,2,0,5,3,4,2,0,5,4,2,0,5,1,5,1,5,1,1,1,3,1,1,1,5,2,0,5,4,2,0,1,4,2,0,3,4,2,0,5,4,2,0,5,4,2,0,5,1,1,1,3,1,5,2,0,1,3,4,2,0,4,2,0,5,1,5,1,1,4,2,0,3,1,1,1,1]","60","420","12","null","","<div class=""feedback-message""></div><div class=""stimulus-container""><div class=""position-wrapper""><div class=""key-label"">S</div><div class=""position-box "" data-position=""0""></div></div><div class=""position-wrapper""><div class=""key-label"">D</div><div class=""position-box "" data-position=""1""></div></div><div class=""position-wrapper""><div class=""key-label"">F</div><div class=""position-box "" data-position=""2""></div></div><div class=""position-wrapper""><div class=""key-label"">J</div><div class=""position-box "" data-position=""3""></div></div><div class=""position-wrapper""><div class=""key-label"">K</div><div class=""position-box "" data-position=""4""></div></div><div class=""position-wrapper""><div class=""key-label"">L</div><div class=""position-box "" data-position=""5""></div></div></div><div class=""finger-diagram-container"">
			<img src=""assets/finger-diagrams/finger-diagram-6pos.png"" alt=""Finger position guide"" class=""finger-diagram"" />
		</div>","null","","","","","","","",""
"","","","","","practice","stimulus","html-keyboard-response","27","193145","0.0-11.0-0.0-0.0","P_000e32c5ef794b6bd4ba724ecd8b302b585a1b33244f863854caa86473d59737","6975d475053a04ec2a824d54","6975d4f442704de9e9b476a6","6","[[0,0.2273234356477396,1.4382488357004985e-11,0.20981619168212484,0.06519783227405394,0.49766254038169905],[0,0.22736964714484262,1.4389615966943733e-11,0.20984759685851753,0.06520404977486319,0.4975787062073871],[0.9882196383546002,7.505216870414609e-13,1.4258841105232542e-11,0.011780361555829953,5.905431977191516e-11,1.550626783568228e-11],[0.011768424314658198,0.27410027860516395,1.4381596613135696e-11,0.21370829276791165,0.4956618083854289,0.004761195912455649],[0,0.004151376708677999,0.8541519975946235,0.14169662567971403,1.363513216867255e-12,1.562112260929659e-11],[0,0.26705763578310293,0.14585056634172525,0.21315316928175454,0.3739386285926206,7.966607020055105e-13]]","[1.7163490803009984,1.7164586615480488,0.09237731181353706,1.6016287006430234,0.6265709654819551,1.9197818344737418]","[1,3,0,5,3,4,2,0,5,1,3,3,1,5,4,3,4,2,0,5,1,3,4,2,0,3,1,5,3,4,2,0,3,4,2,0,1,1,5,4,2,0,1,5,1,3,4,3,4,2,0,1,5,4,2,0,5,3,3,3,3,4,2,0,3,1,5,4,2,0,1,5,1,3,4,2,0,4,2,0,5,3,4,2,0,5,4,2,0,1,5,3,4,2,0,5,4,2,0,5,4,2,0,3,1,1,3,4,3,1,5,4,3,4,2,0,4,2,0,5,3,1,5,1,5,2,0,3,1,1,3,4,2,0,5,4,2,0,5,4,2,0,5,1,5,2,0,5,2,0,1,5,1,5,1,3,4,2,0,5,4,2,0,3,4,2,0,5,4,2,0,5,4,2,0,1,5,3,1,3,4,3,3,1,1,5,3,1,5,3,3,4,2,0,5,4,3,4,2,0,4,2,0,5,4,2,0,5,2,0,5,4,3,4,2,0,5,1,1,1,4,2,0,4,2,0,1,5,2,0,3,4,3,4,3,1,5,1,1,5,1,4,2,0,5,3,3,3,4,2,0,5,4,2,0,1,5,2,0,1,1,3,3,1,5,2,0,5,3,1,1,1,1,1,1,1,1,1,1,5,3,4,2,0,5,4,2,0,5,4,2,0,1,3,1,5,4,2,0,3,4,2,0,5,3,1,5,1,1,3,3,4,2,0,5,4,3,4,2,0,1,5,1,1,3,1,1,3,3,4,2,0,5,2,0,5,2,0,3,5,2,0,5,4,2,0,5,3,4,2,0,5,4,2,0,5,1,5,1,5,1,1,1,3,1,1,1,5,2,0,5,4,2,0,1,4,2,0,3,4,2,0,5,4,2,0,5,4,2,0,5,1,1,1,3,1,5,2,0,1,3,4,2,0,4,2,0,5,1,5,1,1,4,2,0,3,1,1,1,1]","60","420","12","875","","<div class=""feedback-message""></div><div class=""stimulus-container""><div class=""position-wrapper""><div class=""key-label"">S</div><div class=""position-box "" data-position=""0""></div></div><div class=""position-wrapper""><div class=""key-label"">D</div><div class=""position-box "" data-position=""1""></div></div><div class=""position-wrapper""><div class=""key-label"">F</div><div class=""position-box "" data-position=""2""></div></div><div class=""position-wrapper""><div class=""key-label"">J</div><div class=""position-box "" data-position=""3""></div></div><div class=""position-wrapper""><div class=""key-label"">K</div><div class=""position-box active"" data-position=""4""></div></div><div class=""position-wrapper""><div class=""key-label"">L</div><div class=""position-box "" data-position=""5""></div></div></div><div class=""finger-diagram-container"">
			<img src=""assets/finger-diagrams/finger-diagram-6pos.png"" alt=""Finger position guide"" class=""finger-diagram"" />
		</div>","k","4","k","true","","","","",""
"","","","","","practice","feedback","html-keyboard-response","28","193348","0.0-11.0-0.0-1.0","P_000e32c5ef794b6bd4ba724ecd8b302b585a1b33244f863854caa86473d59737","6975d475053a04ec2a824d54","6975d4f442704de9e9b476a6","6","[[0,0.2273234356477396,1.4382488357004985e-11,0.20981619168212484,0.06519783227405394,0.49766254038169905],[0,0.22736964714484262,1.4389615966943733e-11,0.20984759685851753,0.06520404977486319,0.4975787062073871],[0.9882196383546002,7.505216870414609e-13,1.4258841105232542e-11,0.011780361555829953,5.905431977191516e-11,1.550626783568228e-11],[0.011768424314658198,0.27410027860516395,1.4381596613135696e-11,0.21370829276791165,0.4956618083854289,0.004761195912455649],[0,0.004151376708677999,0.8541519975946235,0.14169662567971403,1.363513216867255e-12,1.562112260929659e-11],[0,0.26705763578310293,0.14585056634172525,0.21315316928175454,0.3739386285926206,7.966607020055105e-13]]","[1.7163490803009984,1.7164586615480488,0.09237731181353706,1.6016287006430234,0.6265709654819551,1.9197818344737418]","[1,3,0,5,3,4,2,0,5,1,3,3,1,5,4,3,4,2,0,5,1,3,4,2,0,3,1,5,3,4,2,0,3,4,2,0,1,1,5,4,2,0,1,5,1,3,4,3,4,2,0,1,5,4,2,0,5,3,3,3,3,4,2,0,3,1,5,4,2,0,1,5,1,3,4,2,0,4,2,0,5,3,4,2,0,5,4,2,0,1,5,3,4,2,0,5,4,2,0,5,4,2,0,3,1,1,3,4,3,1,5,4,3,4,2,0,4,2,0,5,3,1,5,1,5,2,0,3,1,1,3,4,2,0,5,4,2,0,5,4,2,0,5,1,5,2,0,5,2,0,1,5,1,5,1,3,4,2,0,5,4,2,0,3,4,2,0,5,4,2,0,5,4,2,0,1,5,3,1,3,4,3,3,1,1,5,3,1,5,3,3,4,2,0,5,4,3,4,2,0,4,2,0,5,4,2,0,5,2,0,5,4,3,4,2,0,5,1,1,1,4,2,0,4,2,0,1,5,2,0,3,4,3,4,3,1,5,1,1,5,1,4,2,0,5,3,3,3,4,2,0,5,4,2,0,1,5,2,0,1,1,3,3,1,5,2,0,5,3,1,1,1,1,1,1,1,1,1,1,5,3,4,2,0,5,4,2,0,5,4,2,0,1,3,1,5,4,2,0,3,4,2,0,5,3,1,5,1,1,3,3,4,2,0,5,4,3,4,2,0,1,5,1,1,3,1,1,3,3,4,2,0,5,2,0,5,2,0,3,5,2,0,5,4,2,0,5,3,4,2,0,5,4,2,0,5,1,5,1,5,1,1,1,3,1,1,1,5,2,0,5,4,2,0,1,4,2,0,3,4,2,0,5,4,2,0,5,4,2,0,5,1,1,1,3,1,5,2,0,1,3,4,2,0,4,2,0,5,1,5,1,1,4,2,0,3,1,1,1,1]","60","420","12","null","","<div class=""feedback-message""><div class=""feedback-correct"">✓</div></div><div class=""stimulus-container""><div class=""position-wrapper""><div class=""key-label"">S</div><div class=""position-box "" data-position=""0""></div></div><div class=""position-wrapper""><div class=""key-label"">D</div><div class=""position-box "" data-position=""1""></div></div><div class=""position-wrapper""><div class=""key-label"">F</div><div class=""position-box "" data-position=""2""></div></div><div class=""position-wrapper""><div class=""key-label"">J</div><div class=""position-box "" data-position=""3""></div></div><div class=""position-wrapper""><div class=""key-label"">K</div><div class=""position-box active"" data-position=""4""></div></div><div class=""position-wrapper""><div class=""key-label"">L</div><div class=""position-box "" data-position=""5""></div></div></div><div class=""finger-diagram-container"">
			<img src=""assets/finger-diagrams/finger-diagram-6pos.png"" alt=""Finger position guide"" class=""finger-diagram"" />
		</div>","null","","","","","","","",""
"","","","","","practice","rsi","html-keyboard-response","29","193485","0.0-11.0-1.0","P_000e32c5ef794b6bd4ba724ecd8b302b585a1b33244f863854caa86473d59737","6975d475053a04ec2a824d54","6975d4f442704de9e9b476a6","6","[[0,0.2273234356477396,1.4382488357004985e-11,0.20981619168212484,0.06519783227405394,0.49766254038169905],[0,0.22736964714484262,1.4389615966943733e-11,0.20984759685851753,0.06520404977486319,0.4975787062073871],[0.9882196383546002,7.505216870414609e-13,1.4258841105232542e-11,0.011780361555829953,5.905431977191516e-11,1.550626783568228e-11],[0.011768424314658198,0.27410027860516395,1.4381596613135696e-11,0.21370829276791165,0.4956618083854289,0.004761195912455649],[0,0.004151376708677999,0.8541519975946235,0.14169662567971403,1.363513216867255e-12,1.562112260929659e-11],[0,0.26705763578310293,0.14585056634172525,0.21315316928175454,0.3739386285926206,7.966607020055105e-13]]","[1.7163490803009984,1.7164586615480488,0.09237731181353706,1.6016287006430234,0.6265709654819551,1.9197818344737418]","[1,3,0,5,3,4,2,0,5,1,3,3,1,5,4,3,4,2,0,5,1,3,4,2,0,3,1,5,3,4,2,0,3,4,2,0,1,1,5,4,2,0,1,5,1,3,4,3,4,2,0,1,5,4,2,0,5,3,3,3,3,4,2,0,3,1,5,4,2,0,1,5,1,3,4,2,0,4,2,0,5,3,4,2,0,5,4,2,0,1,5,3,4,2,0,5,4,2,0,5,4,2,0,3,1,1,3,4,3,1,5,4,3,4,2,0,4,2,0,5,3,1,5,1,5,2,0,3,1,1,3,4,2,0,5,4,2,0,5,4,2,0,5,1,5,2,0,5,2,0,1,5,1,5,1,3,4,2,0,5,4,2,0,3,4,2,0,5,4,2,0,5,4,2,0,1,5,3,1,3,4,3,3,1,1,5,3,1,5,3,3,4,2,0,5,4,3,4,2,0,4,2,0,5,4,2,0,5,2,0,5,4,3,4,2,0,5,1,1,1,4,2,0,4,2,0,1,5,2,0,3,4,3,4,3,1,5,1,1,5,1,4,2,0,5,3,3,3,4,2,0,5,4,2,0,1,5,2,0,1,1,3,3,1,5,2,0,5,3,1,1,1,1,1,1,1,1,1,1,5,3,4,2,0,5,4,2,0,5,4,2,0,1,3,1,5,4,2,0,3,4,2,0,5,3,1,5,1,1,3,3,4,2,0,5,4,3,4,2,0,1,5,1,1,3,1,1,3,3,4,2,0,5,2,0,5,2,0,3,5,2,0,5,4,2,0,5,3,4,2,0,5,4,2,0,5,1,5,1,5,1,1,1,3,1,1,1,5,2,0,5,4,2,0,1,4,2,0,3,4,2,0,5,4,2,0,5,4,2,0,5,1,1,1,3,1,5,2,0,1,3,4,2,0,4,2,0,5,1,5,1,1,4,2,0,3,1,1,1,1]","60","420","12","null","","<div class=""feedback-message""></div><div class=""stimulus-container""><div class=""position-wrapper""><div class=""key-label"">S</div><div class=""position-box "" data-position=""0""></div></div><div class=""position-wrapper""><div class=""key-label"">D</div><div class=""position-box "" data-position=""1""></div></div><div class=""position-wrapper""><div class=""key-label"">F</div><div class=""position-box "" data-position=""2""></div></div><div class=""position-wrapper""><div class=""key-label"">J</div><div class=""position-box "" data-position=""3""></div></div><div class=""position-wrapper""><div class=""key-label"">K</div><div class=""position-box "" data-position=""4""></div></div><div class=""position-wrapper""><div class=""key-label"">L</div><div class=""position-box "" data-position=""5""></div></div></div><div class=""finger-diagram-container"">
			<img src=""assets/finger-diagrams/finger-diagram-6pos.png"" alt=""Finger position guide"" class=""finger-diagram"" />
		</div>","null","","","","","","","",""
"","","","","","practice","stimulus","html-keyboard-response","30","194168","0.0-12.0-0.0-0.0","P_000e32c5ef794b6bd4ba724ecd8b302b585a1b33244f863854caa86473d59737","6975d475053a04ec2a824d54","6975d4f442704de9e9b476a6","6","[[0,0.2273234356477396,1.4382488357004985e-11,0.20981619168212484,0.06519783227405394,0.49766254038169905],[0,0.22736964714484262,1.4389615966943733e-11,0.20984759685851753,0.06520404977486319,0.4975787062073871],[0.9882196383546002,7.505216870414609e-13,1.4258841105232542e-11,0.011780361555829953,5.905431977191516e-11,1.550626783568228e-11],[0.011768424314658198,0.27410027860516395,1.4381596613135696e-11,0.21370829276791165,0.4956618083854289,0.004761195912455649],[0,0.004151376708677999,0.8541519975946235,0.14169662567971403,1.363513216867255e-12,1.562112260929659e-11],[0,0.26705763578310293,0.14585056634172525,0.21315316928175454,0.3739386285926206,7.966607020055105e-13]]","[1.7163490803009984,1.7164586615480488,0.09237731181353706,1.6016287006430234,0.6265709654819551,1.9197818344737418]","[1,3,0,5,3,4,2,0,5,1,3,3,1,5,4,3,4,2,0,5,1,3,4,2,0,3,1,5,3,4,2,0,3,4,2,0,1,1,5,4,2,0,1,5,1,3,4,3,4,2,0,1,5,4,2,0,5,3,3,3,3,4,2,0,3,1,5,4,2,0,1,5,1,3,4,2,0,4,2,0,5,3,4,2,0,5,4,2,0,1,5,3,4,2,0,5,4,2,0,5,4,2,0,3,1,1,3,4,3,1,5,4,3,4,2,0,4,2,0,5,3,1,5,1,5,2,0,3,1,1,3,4,2,0,5,4,2,0,5,4,2,0,5,1,5,2,0,5,2,0,1,5,1,5,1,3,4,2,0,5,4,2,0,3,4,2,0,5,4,2,0,5,4,2,0,1,5,3,1,3,4,3,3,1,1,5,3,1,5,3,3,4,2,0,5,4,3,4,2,0,4,2,0,5,4,2,0,5,2,0,5,4,3,4,2,0,5,1,1,1,4,2,0,4,2,0,1,5,2,0,3,4,3,4,3,1,5,1,1,5,1,4,2,0,5,3,3,3,4,2,0,5,4,2,0,1,5,2,0,1,1,3,3,1,5,2,0,5,3,1,1,1,1,1,1,1,1,1,1,5,3,4,2,0,5,4,2,0,5,4,2,0,1,3,1,5,4,2,0,3,4,2,0,5,3,1,5,1,1,3,3,4,2,0,5,4,3,4,2,0,1,5,1,1,3,1,1,3,3,4,2,0,5,2,0,5,2,0,3,5,2,0,5,4,2,0,5,3,4,2,0,5,4,2,0,5,1,5,1,5,1,1,1,3,1,1,1,5,2,0,5,4,2,0,1,4,2,0,3,4,2,0,5,4,2,0,5,4,2,0,5,1,1,1,3,1,5,2,0,1,3,4,2,0,4,2,0,5,1,5,1,1,4,2,0,3,1,1,1,1]","60","420","12","683","","<div class=""feedback-message""></div><div class=""stimulus-container""><div class=""position-wrapper""><div class=""key-label"">S</div><div class=""position-box "" data-position=""0""></div></div><div class=""position-wrapper""><div class=""key-label"">D</div><div class=""position-box "" data-position=""1""></div></div><div class=""position-wrapper""><div class=""key-label"">F</div><div class=""position-box "" data-position=""2""></div></div><div class=""position-wrapper""><div class=""key-label"">J</div><div class=""position-box "" data-position=""3""></div></div><div class=""position-wrapper""><div class=""key-label"">K</div><div class=""position-box "" data-position=""4""></div></div><div class=""position-wrapper""><div class=""key-label"">L</div><div class=""position-box active"" data-position=""5""></div></div></div><div class=""finger-diagram-container"">
			<img src=""assets/finger-diagrams/finger-diagram-6pos.png"" alt=""Finger position guide"" class=""finger-diagram"" />
		</div>","l","5","l","true","","","","",""
"","","","","","practice","feedback","html-keyboard-response","31","194374","0.0-12.0-0.0-1.0","P_000e32c5ef794b6bd4ba724ecd8b302b585a1b33244f863854caa86473d59737","6975d475053a04ec2a824d54","6975d4f442704de9e9b476a6","6","[[0,0.2273234356477396,1.4382488357004985e-11,0.20981619168212484,0.06519783227405394,0.49766254038169905],[0,0.22736964714484262,1.4389615966943733e-11,0.20984759685851753,0.06520404977486319,0.4975787062073871],[0.9882196383546002,7.505216870414609e-13,1.4258841105232542e-11,0.011780361555829953,5.905431977191516e-11,1.550626783568228e-11],[0.011768424314658198,0.27410027860516395,1.4381596613135696e-11,0.21370829276791165,0.4956618083854289,0.004761195912455649],[0,0.004151376708677999,0.8541519975946235,0.14169662567971403,1.363513216867255e-12,1.562112260929659e-11],[0,0.26705763578310293,0.14585056634172525,0.21315316928175454,0.3739386285926206,7.966607020055105e-13]]","[1.7163490803009984,1.7164586615480488,0.09237731181353706,1.6016287006430234,0.6265709654819551,1.9197818344737418]","[1,3,0,5,3,4,2,0,5,1,3,3,1,5,4,3,4,2,0,5,1,3,4,2,0,3,1,5,3,4,2,0,3,4,2,0,1,1,5,4,2,0,1,5,1,3,4,3,4,2,0,1,5,4,2,0,5,3,3,3,3,4,2,0,3,1,5,4,2,0,1,5,1,3,4,2,0,4,2,0,5,3,4,2,0,5,4,2,0,1,5,3,4,2,0,5,4,2,0,5,4,2,0,3,1,1,3,4,3,1,5,4,3,4,2,0,4,2,0,5,3,1,5,1,5,2,0,3,1,1,3,4,2,0,5,4,2,0,5,4,2,0,5,1,5,2,0,5,2,0,1,5,1,5,1,3,4,2,0,5,4,2,0,3,4,2,0,5,4,2,0,5,4,2,0,1,5,3,1,3,4,3,3,1,1,5,3,1,5,3,3,4,2,0,5,4,3,4,2,0,4,2,0,5,4,2,0,5,2,0,5,4,3,4,2,0,5,1,1,1,4,2,0,4,2,0,1,5,2,0,3,4,3,4,3,1,5,1,1,5,1,4,2,0,5,3,3,3,4,2,0,5,4,2,0,1,5,2,0,1,1,3,3,1,5,2,0,5,3,1,1,1,1,1,1,1,1,1,1,5,3,4,2,0,5,4,2,0,5,4,2,0,1,3,1,5,4,2,0,3,4,2,0,5,3,1,5,1,1,3,3,4,2,0,5,4,3,4,2,0,1,5,1,1,3,1,1,3,3,4,2,0,5,2,0,5,2,0,3,5,2,0,5,4,2,0,5,3,4,2,0,5,4,2,0,5,1,5,1,5,1,1,1,3,1,1,1,5,2,0,5,4,2,0,1,4,2,0,3,4,2,0,5,4,2,0,5,4,2,0,5,1,1,1,3,1,5,2,0,1,3,4,2,0,4,2,0,5,1,5,1,1,4,2,0,3,1,1,1,1]","60","420","12","null","","<div class=""feedback-message""><div class=""feedback-correct"">✓</div></div><div class=""stimulus-container""><div class=""position-wrapper""><div class=""key-label"">S</div><div class=""position-box "" data-position=""0""></div></div><div class=""position-wrapper""><div class=""key-label"">D</div><div class=""position-box "" data-position=""1""></div></div><div class=""position-wrapper""><div class=""key-label"">F</div><div class=""position-box "" data-position=""2""></div></div><div class=""position-wrapper""><div class=""key-label"">J</div><div class=""position-box "" data-position=""3""></div></div><div class=""position-wrapper""><div class=""key-label"">K</div><div class=""position-box "" data-position=""4""></div></div><div class=""position-wrapper""><div class=""key-label"">L</div><div class=""position-box active"" data-position=""5""></div></div></div><div class=""finger-diagram-container"">
			<img src=""assets/finger-diagrams/finger-diagram-6pos.png"" alt=""Finger position guide"" class=""finger-diagram"" />
		</div>","null","","","","","","","",""
"","","","","","practice","rsi","html-keyboard-response","32","194501","0.0-12.0-1.0","P_000e32c5ef794b6bd4ba724ecd8b302b585a1b33244f863854caa86473d59737","6975d475053a04ec2a824d54","6975d4f442704de9e9b476a6","6","[[0,0.2273234356477396,1.4382488357004985e-11,0.20981619168212484,0.06519783227405394,0.49766254038169905],[0,0.22736964714484262,1.4389615966943733e-11,0.20984759685851753,0.06520404977486319,0.4975787062073871],[0.9882196383546002,7.505216870414609e-13,1.4258841105232542e-11,0.011780361555829953,5.905431977191516e-11,1.550626783568228e-11],[0.011768424314658198,0.27410027860516395,1.4381596613135696e-11,0.21370829276791165,0.4956618083854289,0.004761195912455649],[0,0.004151376708677999,0.8541519975946235,0.14169662567971403,1.363513216867255e-12,1.562112260929659e-11],[0,0.26705763578310293,0.14585056634172525,0.21315316928175454,0.3739386285926206,7.966607020055105e-13]]","[1.7163490803009984,1.7164586615480488,0.09237731181353706,1.6016287006430234,0.6265709654819551,1.9197818344737418]","[1,3,0,5,3,4,2,0,5,1,3,3,1,5,4,3,4,2,0,5,1,3,4,2,0,3,1,5,3,4,2,0,3,4,2,0,1,1,5,4,2,0,1,5,1,3,4,3,4,2,0,1,5,4,2,0,5,3,3,3,3,4,2,0,3,1,5,4,2,0,1,5,1,3,4,2,0,4,2,0,5,3,4,2,0,5,4,2,0,1,5,3,4,2,0,5,4,2,0,5,4,2,0,3,1,1,3,4,3,1,5,4,3,4,2,0,4,2,0,5,3,1,5,1,5,2,0,3,1,1,3,4,2,0,5,4,2,0,5,4,2,0,5,1,5,2,0,5,2,0,1,5,1,5,1,3,4,2,0,5,4,2,0,3,4,2,0,5,4,2,0,5,4,2,0,1,5,3,1,3,4,3,3,1,1,5,3,1,5,3,3,4,2,0,5,4,3,4,2,0,4,2,0,5,4,2,0,5,2,0,5,4,3,4,2,0,5,1,1,1,4,2,0,4,2,0,1,5,2,0,3,4,3,4,3,1,5,1,1,5,1,4,2,0,5,3,3,3,4,2,0,5,4,2,0,1,5,2,0,1,1,3,3,1,5,2,0,5,3,1,1,1,1,1,1,1,1,1,1,5,3,4,2,0,5,4,2,0,5,4,2,0,1,3,1,5,4,2,0,3,4,2,0,5,3,1,5,1,1,3,3,4,2,0,5,4,3,4,2,0,1,5,1,1,3,1,1,3,3,4,2,0,5,2,0,5,2,0,3,5,2,0,5,4,2,0,5,3,4,2,0,5,4,2,0,5,1,5,1,5,1,1,1,3,1,1,1,5,2,0,5,4,2,0,1,4,2,0,3,4,2,0,5,4,2,0,5,4,2,0,5,1,1,1,3,1,5,2,0,1,3,4,2,0,4,2,0,5,1,5,1,1,4,2,0,3,1,1,1,1]","60","420","12","null","","<div class=""feedback-message""></div><div class=""stimulus-container""><div class=""position-wrapper""><div class=""key-label"">S</div><div class=""position-box "" data-position=""0""></div></div><div class=""position-wrapper""><div class=""key-label"">D</div><div class=""position-box "" data-position=""1""></div></div><div class=""position-wrapper""><div class=""key-label"">F</div><div class=""position-box "" data-position=""2""></div></div><div class=""position-wrapper""><div class=""key-label"">J</div><div class=""position-box "" data-position=""3""></div></div><div class=""position-wrapper""><div class=""key-label"">K</div><div class=""position-box "" data-position=""4""></div></div><div class=""position-wrapper""><div class=""key-label"">L</div><div class=""position-box "" data-position=""5""></div></div></div><div class=""finger-diagram-container"">
			<img src=""assets/finger-diagrams/finger-diagram-6pos.png"" alt=""Finger position guide"" class=""finger-diagram"" />
		</div>","null","","","","","","","",""
"","","","","","practice","stimulus","html-keyboard-response","33","195133","0.0-13.0-0.0-0.0","P_000e32c5ef794b6bd4ba724ecd8b302b585a1b33244f863854caa86473d59737","6975d475053a04ec2a824d54","6975d4f442704de9e9b476a6","6","[[0,0.2273234356477396,1.4382488357004985e-11,0.20981619168212484,0.06519783227405394,0.49766254038169905],[0,0.22736964714484262,1.4389615966943733e-11,0.20984759685851753,0.06520404977486319,0.4975787062073871],[0.9882196383546002,7.505216870414609e-13,1.4258841105232542e-11,0.011780361555829953,5.905431977191516e-11,1.550626783568228e-11],[0.011768424314658198,0.27410027860516395,1.4381596613135696e-11,0.21370829276791165,0.4956618083854289,0.004761195912455649],[0,0.004151376708677999,0.8541519975946235,0.14169662567971403,1.363513216867255e-12,1.562112260929659e-11],[0,0.26705763578310293,0.14585056634172525,0.21315316928175454,0.3739386285926206,7.966607020055105e-13]]","[1.7163490803009984,1.7164586615480488,0.09237731181353706,1.6016287006430234,0.6265709654819551,1.9197818344737418]","[1,3,0,5,3,4,2,0,5,1,3,3,1,5,4,3,4,2,0,5,1,3,4,2,0,3,1,5,3,4,2,0,3,4,2,0,1,1,5,4,2,0,1,5,1,3,4,3,4,2,0,1,5,4,2,0,5,3,3,3,3,4,2,0,3,1,5,4,2,0,1,5,1,3,4,2,0,4,2,0,5,3,4,2,0,5,4,2,0,1,5,3,4,2,0,5,4,2,0,5,4,2,0,3,1,1,3,4,3,1,5,4,3,4,2,0,4,2,0,5,3,1,5,1,5,2,0,3,1,1,3,4,2,0,5,4,2,0,5,4,2,0,5,1,5,2,0,5,2,0,1,5,1,5,1,3,4,2,0,5,4,2,0,3,4,2,0,5,4,2,0,5,4,2,0,1,5,3,1,3,4,3,3,1,1,5,3,1,5,3,3,4,2,0,5,4,3,4,2,0,4,2,0,5,4,2,0,5,2,0,5,4,3,4,2,0,5,1,1,1,4,2,0,4,2,0,1,5,2,0,3,4,3,4,3,1,5,1,1,5,1,4,2,0,5,3,3,3,4,2,0,5,4,2,0,1,5,2,0,1,1,3,3,1,5,2,0,5,3,1,1,1,1,1,1,1,1,1,1,5,3,4,2,0,5,4,2,0,5,4,2,0,1,3,1,5,4,2,0,3,4,2,0,5,3,1,5,1,1,3,3,4,2,0,5,4,3,4,2,0,1,5,1,1,3,1,1,3,3,4,2,0,5,2,0,5,2,0,3,5,2,0,5,4,2,0,5,3,4,2,0,5,4,2,0,5,1,5,1,5,1,1,1,3,1,1,1,5,2,0,5,4,2,0,1,4,2,0,3,4,2,0,5,4,2,0,5,4,2,0,5,1,1,1,3,1,5,2,0,1,3,4,2,0,4,2,0,5,1,5,1,1,4,2,0,3,1,1,1,1]","60","420","12","631","","<div class=""feedback-message""></div><div class=""stimulus-container""><div class=""position-wrapper""><div class=""key-label"">S</div><div class=""position-box active"" data-position=""0""></div></div><div class=""position-wrapper""><div class=""key-label"">D</div><div class=""position-box "" data-position=""1""></div></div><div class=""position-wrapper""><div class=""key-label"">F</div><div class=""position-box "" data-position=""2""></div></div><div class=""position-wrapper""><div class=""key-label"">J</div><div class=""position-box "" data-position=""3""></div></div><div class=""position-wrapper""><div class=""key-label"">K</div><div class=""position-box "" data-position=""4""></div></div><div class=""position-wrapper""><div class=""key-label"">L</div><div class=""position-box "" data-position=""5""></div></div></div><div class=""finger-diagram-container"">
			<img src=""assets/finger-diagrams/finger-diagram-6pos.png"" alt=""Finger position guide"" class=""finger-diagram"" />
		</div>","s","0","s","true","","","","",""
