"success","timeout","failed_images","failed_audio","failed_video","phase","experiment_trial_type","trial_type","trial_index","time_elapsed","internal_node_id","subject_id","study_id","session_id","matrix_size","transition_matrix","conditional_entropies","sequence","trials_per_block","total_trials","practice_trials","rt","view_history","stimulus","response","position","correct_key","correct","block","trial_in_block","overall_trial","question_order","questionnaire_item"
"true","false","[]","[]","[]","preload","preload","preload","0","409","0.0-0.0","P_2efef0f6cee120371577824551b30a495b52d5902f33d1bb1a31631d7ff36b72","6975d475053a04ec2a824d54","6975d5638f99b4a10d842154","4","[[0.02736968909322194,0.5858593039421993,0,0.3867710069645787],[0,0.060260165899335215,0.701326755417172,0.23841307868349276],[0.9726301708741357,0.0000023008162070389276,0,0.027367528309657305],[0,0.35387827489883494,0.2986732967287947,0.3474484283723703]]","[1.1240499164293296,1.0963305126500609,0.18105958573962463,1.5809472755632945]","[2,0,3,3,2,0,3,2,0,1,2,0,1,2,0,3,1,2,0,0,1,2,0,3,1,1,3,3,3,2,0,3,2,0,3,2,0,1,2,0,1,3,1,2,0,3,1,3,1,1,2,0,3,1,2,0,0,1,2,0,1,2,0,1,2,0,1,2,0,3,1,1,2,0,3,3,3,3,3,1,3,2,0,1,2,0,3,3,1,2,0,1,2,0,1,2,0,1,2,0,1,2,0,1,3,2,0,1,3,1,2,0,1,2,0,3,1,2,0,3,1,2,0,3,2,0,3,3,1,2,0,1,3,1,1,2,0,1,3,2,0,3,1,3,1,3,3,2,0,1,3,1,3,1,2,0,1,2,0,3,2,0,1,1,2,0,1,2,0,1,2,0,1,2,0,3,1,3,2,0,1,3,3,2,0,1,2,0,1,3,3,3,3,3,1,3,3,3,2,0,1,2,0,3,3,1,2,0,3,1,1,2,0,3,1,2,0,1,2,0,1,3,3,2,0,1,2,0,3,3,1,2,0,3,2,0,1,2,0,3,1,2,0,1,2,0,1,2,0,1,2,0,1,2,0,1,3,2,0,1,2,0,3,3,2,0,1,3,3,1,2,0,3,3,1,3,3,3,2,0]","40","280","8","","","","","","","","","","","",""
"true","","","","","fullscreen","fullscreen","fullscreen","1","3821","0.0-1.0","P_2efef0f6cee120371577824551b30a495b52d5902f33d1bb1a31631d7ff36b72","6975d475053a04ec2a824d54","6975d5638f99b4a10d842154","4","[[0.02736968909322194,0.5858593039421993,0,0.3867710069645787],[0,0.060260165899335215,0.701326755417172,0.23841307868349276],[0.9726301708741357,0.0000023008162070389276,0,0.027367528309657305],[0,0.35387827489883494,0.2986732967287947,0.3474484283723703]]","[1.1240499164293296,1.0963305126500609,0.18105958573962463,1.5809472755632945]","[2,0,3,3,2,0,3,2,0,1,2,0,1,2,0,3,1,2,0,0,1,2,0,3,1,1,3,3,3,2,0,3,2,0,3,2,0,1,2,0,1,3,1,2,0,3,1,3,1,1,2,0,3,1,2,0,0,1,2,0,1,2,0,1,2,0,1,2,0,3,1,1,2,0,3,3,3,3,3,1,3,2,0,1,2,0,3,3,1,2,0,1,2,0,1,2,0,1,2,0,1,2,0,1,3,2,0,1,3,1,2,0,1,2,0,3,1,2,0,3,1,2,0,3,2,0,3,3,1,2,0,1,3,1,1,2,0,1,3,2,0,3,1,3,1,3,3,2,0,1,3,1,3,1,2,0,1,2,0,3,2,0,1,1,2,0,1,2,0,1,2,0,1,2,0,3,1,3,2,0,1,3,3,2,0,1,2,0,1,3,3,3,3,3,1,3,3,3,2,0,1,2,0,3,3,1,2,0,3,1,1,2,0,3,1,2,0,1,2,0,1,3,3,2,0,1,2,0,3,3,1,2,0,3,2,0,1,2,0,3,1,2,0,1,2,0,1,2,0,1,2,0,1,2,0,1,3,2,0,1,2,0,3,3,2,0,1,3,3,1,2,0,3,3,1,3,3,3,2,0]","40","280","8","2401","","","","","","","","","","",""
"","","","","","instructions","instructions","instructions","2","89588","0.0-2.0","P_2efef0f6cee120371577824551b30a495b52d5902f33d1bb1a31631d7ff36b72","6975d475053a04ec2a824d54","6975d5638f99b4a10d842154","4","[[0.02736968909322194,0.5858593039421993,0,0.3867710069645787],[0,0.060260165899335215,0.701326755417172,0.23841307868349276],[0.9726301708741357,0.0000023008162070389276,0,0.027367528309657305],[0,0.35387827489883494,0.2986732967287947,0.3474484283723703]]","[1.1240499164293296,1.0963305126500609,0.18105958573962463,1.5809472755632945]","[2,0,3,3,2,0,3,2,0,1,2,0,1,2,0,3,1,2,0,0,1,2,0,3,1,1,3,3,3,2,0,3,2,0,3,2,0,1,2,0,1,3,1,2,0,3,1,3,1,1,2,0,3,1,2,0,0,1,2,0,1,2,0,1,2,0,1,2,0,3,1,1,2,0,3,3,3,3,3,1,3,2,0,1,2,0,3,3,1,2,0,1,2,0,1,2,0,1,2,0,1,2,0,1,3,2,0,1,3,1,2,0,1,2,0,3,1,2,0,3,1,2,0,3,2,0,3,3,1,2,0,1,3,1,1,2,0,1,3,2,0,3,1,3,1,3,3,2,0,1,3,1,3,1,2,0,1,2,0,3,2,0,1,1,2,0,1,2,0,1,2,0,1,2,0,3,1,3,2,0,1,3,3,2,0,1,2,0,1,3,3,3,3,3,1,3,3,3,2,0,1,2,0,3,3,1,2,0,3,1,1,2,0,3,1,2,0,1,2,0,1,3,3,2,0,1,2,0,3,3,1,2,0,3,2,0,1,2,0,3,1,2,0,1,2,0,1,2,0,1,2,0,1,2,0,1,3,2,0,1,2,0,3,3,2,0,1,3,3,1,2,0,3,3,1,3,3,3,2,0]","40","280","8","85766","[{""page_index"":0,""viewing_time"":13678},{""page_index"":1,""viewing_time"":57424},{""page_index"":2,""viewing_time"":10576},{""page_index"":3,""viewing_time"":4088}]","","","","","","","","","",""
"","","","","","practice","stimulus","html-keyboard-response","3","92029","0.0-3.0-0.0-0.0","P_2efef0f6cee120371577824551b30a495b52d5902f33d1bb1a31631d7ff36b72","6975d475053a04ec2a824d54","6975d5638f99b4a10d842154","4","[[0.02736968909322194,0.5858593039421993,0,0.3867710069645787],[0,0.060260165899335215,0.701326755417172,0.23841307868349276],[0.9726301708741357,0.0000023008162070389276,0,0.027367528309657305],[0,0.35387827489883494,0.2986732967287947,0.3474484283723703]]","[1.1240499164293296,1.0963305126500609,0.18105958573962463,1.5809472755632945]","[2,0,3,3,2,0,3,2,0,1,2,0,1,2,0,3,1,2,0,0,1,2,0,3,1,1,3,3,3,2,0,3,2,0,3,2,0,1,2,0,1,3,1,2,0,3,1,3,1,1,2,0,3,1,2,0,0,1,2,0,1,2,0,1,2,0,1,2,0,3,1,1,2,0,3,3,3,3,3,1,3,2,0,1,2,0,3,3,1,2,0,1,2,0,1,2,0,1,2,0,1,2,0,1,3,2,0,1,3,1,2,0,1,2,0,3,1,2,0,3,1,2,0,3,2,0,3,3,1,2,0,1,3,1,1,2,0,1,3,2,0,3,1,3,1,3,3,2,0,1,3,1,3,1,2,0,1,2,0,3,2,0,1,1,2,0,1,2,0,1,2,0,1,2,0,3,1,3,2,0,1,3,3,2,0,1,2,0,1,3,3,3,3,3,1,3,3,3,2,0,1,2,0,3,3,1,2,0,3,1,1,2,0,3,1,2,0,1,2,0,1,3,3,2,0,1,2,0,3,3,1,2,0,3,2,0,1,2,0,3,1,2,0,1,2,0,1,2,0,1,2,0,1,2,0,1,3,2,0,1,2,0,3,3,2,0,1,3,3,1,2,0,3,3,1,3,3,3,2,0]","40","280","8","2439","","<div class=""feedback-message""></div><div class=""stimulus-container""><div class=""position-wrapper""><div class=""key-label"">D</div><div class=""position-box "" data-position=""0""></div></div><div class=""position-wrapper""><div class=""key-label"">F</div><div class=""position-box "" data-position=""1""></div></div><div class=""position-wrapper""><div class=""key-label"">J</div><div class=""position-box "" data-position=""2""></div></div><div class=""position-wrapper""><div class=""key-label"">K</div><div class=""position-box active"" data-position=""3""></div></div></div><div class=""finger-diagram-container"">
			<img src=""assets/finger-diagrams/finger-diagram-4pos.png"" alt=""Finger position guide"" class=""finger-diagram"" />
		</div>","k","3","k","true","","","","",""
"","","","","","practice","feedback","html-keyboard-response","4","92233","0.0-3.0-0.0-1.0","P_2efef0f6cee120371577824551b30a495b52d5902f33d1bb1a31631d7ff36b72","6975d475053a04ec2a824d54","6975d5638f99b4a10d842154","4","[[0.02736968909322194,0.5858593039421993,0,0.3867710069645787],[0,0.060260165899335215,0.701326755417172,0.23841307868349276],[0.9726301708741357,0.0000023008162070389276,0,0.027367528309657305],[0,0.35387827489883494,0.2986732967287947,0.3474484283723703]]","[1.1240499164293296,1.0963305126500609,0.18105958573962463,1.5809472755632945]","[2,0,3,3,2,0,3,2,0,1,2,0,1,2,0,3,1,2,0,0,1,2,0,3,1,1,3,3,3,2,0,3,2,0,3,2,0,1,2,0,1,3,1,2,0,3,1,3,1,1,2,0,3,1,2,0,0,1,2,0,1,2,0,1,2,0,1,2,0,3,1,1,2,0,3,3,3,3,3,1,3,2,0,1,2,0,3,3,1,2,0,1,2,0,1,2,0,1,2,0,1,2,0,1,3,2,0,1,3,1,2,0,1,2,0,3,1,2,0,3,1,2,0,3,2,0,3,3,1,2,0,1,3,1,1,2,0,1,3,2,0,3,1,3,1,3,3,2,0,1,3,1,3,1,2,0,1,2,0,3,2,0,1,1,2,0,1,2,0,1,2,0,1,2,0,3,1,3,2,0,1,3,3,2,0,1,2,0,1,3,3,3,3,3,1,3,3,3,2,0,1,2,0,3,3,1,2,0,3,1,1,2,0,3,1,2,0,1,2,0,1,3,3,2,0,1,2,0,3,3,1,2,0,3,2,0,1,2,0,3,1,2,0,1,2,0,1,2,0,1,2,0,1,2,0,1,3,2,0,1,2,0,3,3,2,0,1,3,3,1,2,0,3,3,1,3,3,3,2,0]","40","280","8","null","","<div class=""feedback-message""><div class=""feedback-correct"">✓</div></div><div class=""stimulus-container""><div class=""position-wrapper""><div class=""key-label"">D</div><div class=""position-box "" data-position=""0""></div></div><div class=""position-wrapper""><div class=""key-label"">F</div><div class=""position-box "" data-position=""1""></div></div><div class=""position-wrapper""><div class=""key-label"">J</div><div class=""position-box "" data-position=""2""></div></div><div class=""position-wrapper""><div class=""key-label"">K</div><div class=""position-box active"" data-position=""3""></div></div></div><div class=""finger-diagram-container"">
			<img src=""assets/finger-diagrams/finger-diagram-4pos.png"" alt=""Finger position guide"" class=""finger-diagram"" />
		</div>","null","","","","","","","",""
"","","","","","practice","rsi","html-keyboard-response","5","92358","0.0-3.0-1.0","P_2efef0f6cee120371577824551b30a495b52d5902f33d1bb1a31631d7ff36b72","6975d475053a04ec2a824d54","6975d5638f99b4a10d842154","4","[[0.02736968909322194,0.5858593039421993,0,0.3867710069645787],[0,0.060260165899335215,0.701326755417172,0.23841307868349276],[0.9726301708741357,0.0000023008162070389276,0,0.027367528309657305],[0,0.35387827489883494,0.2986732967287947,0.3474484283723703]]","[1.1240499164293296,1.0963305126500609,0.18105958573962463,1.5809472755632945]","[2,0,3,3,2,0,3,2,0,1,2,0,1,2,0,3,1,2,0,0,1,2,0,3,1,1,3,3,3,2,0,3,2,0,3,2,0,1,2,0,1,3,1,2,0,3,1,3,1,1,2,0,3,1,2,0,0,1,2,0,1,2,0,1,2,0,1,2,0,3,1,1,2,0,3,3,3,3,3,1,3,2,0,1,2,0,3,3,1,2,0,1,2,0,1,2,0,1,2,0,1,2,0,1,3,2,0,1,3,1,2,0,1,2,0,3,1,2,0,3,1,2,0,3,2,0,3,3,1,2,0,1,3,1,1,2,0,1,3,2,0,3,1,3,1,3,3,2,0,1,3,1,3,1,2,0,1,2,0,3,2,0,1,1,2,0,1,2,0,1,2,0,1,2,0,3,1,3,2,0,1,3,3,2,0,1,2,0,1,3,3,3,3,3,1,3,3,3,2,0,1,2,0,3,3,1,2,0,3,1,1,2,0,3,1,2,0,1,2,0,1,3,3,2,0,1,2,0,3,3,1,2,0,3,2,0,1,2,0,3,1,2,0,1,2,0,1,2,0,1,2,0,1,2,0,1,3,2,0,1,2,0,3,3,2,0,1,3,3,1,2,0,3,3,1,3,3,3,2,0]","40","280","8","null","","<div class=""feedback-message""></div><div class=""stimulus-container""><div class=""position-wrapper""><div class=""key-label"">D</div><div class=""position-box "" data-position=""0""></div></div><div class=""position-wrapper""><div class=""key-label"">F</div><div class=""position-box "" data-position=""1""></div></div><div class=""position-wrapper""><div class=""key-label"">J</div><div class=""position-box "" data-position=""2""></div></div><div class=""position-wrapper""><div class=""key-label"">K</div><div class=""position-box "" data-position=""3""></div></div></div><div class=""finger-diagram-container"">
			<img src=""assets/finger-diagrams/finger-diagram-4pos.png"" alt=""Finger position guide"" class=""finger-diagram"" />
		</div>","null","","","","","","","",""
"","","","","","practice","stimulus","html-keyboard-response","6","93045","0.0-4.0-0.0-0.0","P_2efef0f6cee120371577824551b30a495b52d5902f33d1bb1a31631d7ff36b72","6975d475053a04ec2a824d54","6975d5638f99b4a10d842154","4","[[0.02736968909322194,0.5858593039421993,0,0.3867710069645787],[0,0.060260165899335215,0.701326755417172,0.23841307868349276],[0.9726301708741357,0.0000023008162070389276,0,0.027367528309657305],[0,0.35387827489883494,0.2986732967287947,0.3474484283723703]]","[1.1240499164293296,1.0963305126500609,0.18105958573962463,1.5809472755632945]","[2,0,3,3,2,0,3,2,0,1,2,0,1,2,0,3,1,2,0,0,1,2,0,3,1,1,3,3,3,2,0,3,2,0,3,2,0,1,2,0,1,3,1,2,0,3,1,3,1,1,2,0,3,1,2,0,0,1,2,0,1,2,0,1,2,0,1,2,0,3,1,1,2,0,3,3,3,3,3,1,3,2,0,1,2,0,3,3,1,2,0,1,2,0,1,2,0,1,2,0,1,2,0,1,3,2,0,1,3,1,2,0,1,2,0,3,1,2,0,3,1,2,0,3,2,0,3,3,1,2,0,1,3,1,1,2,0,1,3,2,0,3,1,3,1,3,3,2,0,1,3,1,3,1,2,0,1,2,0,3,2,0,1,1,2,0,1,2,0,1,2,0,1,2,0,3,1,3,2,0,1,3,3,2,0,1,2,0,1,3,3,3,3,3,1,3,3,3,2,0,1,2,0,3,3,1,2,0,3,1,1,2,0,3,1,2,0,1,2,0,1,3,3,2,0,1,2,0,3,3,1,2,0,3,2,0,1,2,0,3,1,2,0,1,2,0,1,2,0,1,2,0,1,2,0,1,3,2,0,1,2,0,3,3,2,0,1,3,3,1,2,0,3,3,1,3,3,3,2,0]","40","280","8","686","","<div class=""feedback-message""></div><div class=""stimulus-container""><div class=""position-wrapper""><div class=""key-label"">D</div><div class=""position-box "" data-position=""0""></div></div><div class=""position-wrapper""><div class=""key-label"">F</div><div class=""position-box active"" data-position=""1""></div></div><div class=""position-wrapper""><div class=""key-label"">J</div><div class=""position-box "" data-position=""2""></div></div><div class=""position-wrapper""><div class=""key-label"">K</div><div class=""position-box "" data-position=""3""></div></div></div><div class=""finger-diagram-container"">
			<img src=""assets/finger-diagrams/finger-diagram-4pos.png"" alt=""Finger position guide"" class=""finger-diagram"" />
		</div>","f","1","f","true","","","","",""
"","","","","","practice","feedback","html-keyboard-response","7","93246","0.0-4.0-0.0-1.0","P_2efef0f6cee120371577824551b30a495b52d5902f33d1bb1a31631d7ff36b72","6975d475053a04ec2a824d54","6975d5638f99b4a10d842154","4","[[0.02736968909322194,0.5858593039421993,0,0.3867710069645787],[0,0.060260165899335215,0.701326755417172,0.23841307868349276],[0.9726301708741357,0.0000023008162070389276,0,0.027367528309657305],[0,0.35387827489883494,0.2986732967287947,0.3474484283723703]]","[1.1240499164293296,1.0963305126500609,0.18105958573962463,1.5809472755632945]","[2,0,3,3,2,0,3,2,0,1,2,0,1,2,0,3,1,2,0,0,1,2,0,3,1,1,3,3,3,2,0,3,2,0,3,2,0,1,2,0,1,3,1,2,0,3,1,3,1,1,2,0,3,1,2,0,0,1,2,0,1,2,0,1,2,0,1,2,0,3,1,1,2,0,3,3,3,3,3,1,3,2,0,1,2,0,3,3,1,2,0,1,2,0,1,2,0,1,2,0,1,2,0,1,3,2,0,1,3,1,2,0,1,2,0,3,1,2,0,3,1,2,0,3,2,0,3,3,1,2,0,1,3,1,1,2,0,1,3,2,0,3,1,3,1,3,3,2,0,1,3,1,3,1,2,0,1,2,0,3,2,0,1,1,2,0,1,2,0,1,2,0,1,2,0,3,1,3,2,0,1,3,3,2,0,1,2,0,1,3,3,3,3,3,1,3,3,3,2,0,1,2,0,3,3,1,2,0,3,1,1,2,0,3,1,2,0,1,2,0,1,3,3,2,0,1,2,0,3,3,1,2,0,3,2,0,1,2,0,3,1,2,0,1,2,0,1,2,0,1,2,0,1,2,0,1,3,2,0,1,2,0,3,3,2,0,1,3,3,1,2,0,3,3,1,3,3,3,2,0]","40","280","8","null","","<div class=""feedback-message""><div class=""feedback-correct"">✓</div></div><div class=""stimulus-container""><div class=""position-wrapper""><div class=""key-label"">D</div><div class=""position-box "" data-position=""0""></div></div><div class=""position-wrapper""><div class=""key-label"">F</div><div class=""position-box active"" data-position=""1""></div></div><div class=""position-wrapper""><div class=""key-label"">J</div><div class=""position-box "" data-position=""2""></div></div><div class=""position-wrapper""><div class=""key-label"">K</div><div class=""position-box "" data-position=""3""></div></div></div><div class=""finger-diagram-container"">
			<img src=""assets/finger-diagrams/finger-diagram-4pos.png"" alt=""Finger position guide"" class=""finger-diagram"" />
		</div>","null","","","","","","","",""
"","","","","","practice","rsi","html-keyboard-response","8","93371","0.0-4.0-1.0","P_2efef0f6cee120371577824551b30a495b52d5902f33d1bb1a31631d7ff36b72","6975d475053a04ec2a824d54","6975d5638f99b4a10d842154","4","[[0.02736968909322194,0.5858593039421993,0,0.3867710069645787],[0,0.060260165899335215,0.701326755417172,0.23841307868349276],[0.9726301708741357,0.0000023008162070389276,0,0.027367528309657305],[0,0.35387827489883494,0.2986732967287947,0.3474484283723703]]","[1.1240499164293296,1.0963305126500609,0.18105958573962463,1.5809472755632945]","[2,0,3,3,2,0,3,2,0,1,2,0,1,2,0,3,1,2,0,0,1,2,0,3,1,1,3,3,3,2,0,3,2,0,3,2,0,1,2,0,1,3,1,2,0,3,1,3,1,1,2,0,3,1,2,0,0,1,2,0,1,2,0,1,2,0,1,2,0,3,1,1,2,0,3,3,3,3,3,1,3,2,0,1,2,0,3,3,1,2,0,1,2,0,1,2,0,1,2,0,1,2,0,1,3,2,0,1,3,1,2,0,1,2,0,3,1,2,0,3,1,2,0,3,2,0,3,3,1,2,0,1,3,1,1,2,0,1,3,2,0,3,1,3,1,3,3,2,0,1,3,1,3,1,2,0,1,2,0,3,2,0,1,1,2,0,1,2,0,1,2,0,1,2,0,3,1,3,2,0,1,3,3,2,0,1,2,0,1,3,3,3,3,3,1,3,3,3,2,0,1,2,0,3,3,1,2,0,3,1,1,2,0,3,1,2,0,1,2,0,1,3,3,2,0,1,2,0,3,3,1,2,0,3,2,0,1,2,0,3,1,2,0,1,2,0,1,2,0,1,2,0,1,2,0,1,3,2,0,1,2,0,3,3,2,0,1,3,3,1,2,0,3,3,1,3,3,3,2,0]","40","280","8","null","","<div class=""feedback-message""></div><div class=""stimulus-container""><div class=""position-wrapper""><div class=""key-label"">D</div><div class=""position-box "" data-position=""0""></div></div><div class=""position-wrapper""><div class=""key-label"">F</div><div class=""position-box "" data-position=""1""></div></div><div class=""position-wrapper""><div class=""key-label"">J</div><div class=""position-box "" data-position=""2""></div></div><div class=""position-wrapper""><div class=""key-label"">K</div><div class=""position-box "" data-position=""3""></div></div></div><div class=""finger-diagram-container"">
			<img src=""assets/finger-diagrams/finger-diagram-4pos.png"" alt=""Finger position guide"" class=""finger-diagram"" />
		</div>","null","","","","","","","",""
"","","","","","practice","stimulus","html-keyboard-response","9","93948","0.0-5.0-0.0-0.0","P_2efef0f6cee120371577824551b30a495b52d5902f33d1bb1a31631d7ff36b72","6975d475053a04ec2a824d54","6975d5638f99b4a10d842154","4","[[0.02736968909322194,0.5858593039421993,0,0.3867710069645787],[0,0.060260165899335215,0.701326755417172,0.23841307868349276],[0.9726301708741357,0.0000023008162070389276,0,0.027367528309657305],[0,0.35387827489883494,0.2986732967287947,0.3474484283723703]]","[1.1240499164293296,1.0963305126500609,0.18105958573962463,1.5809472755632945]","[2,0,3,3,2,0,3,2,0,1,2,0,1,2,0,3,1,2,0,0,1,2,0,3,1,1,3,3,3,2,0,3,2,0,3,2,0,1,2,0,1,3,1,2,0,3,1,3,1,1,2,0,3,1,2,0,0,1,2,0,1,2,0,1,2,0,1,2,0,3,1,1,2,0,3,3,3,3,3,1,3,2,0,1,2,0,3,3,1,2,0,1,2,0,1,2,0,1,2,0,1,2,0,1,3,2,0,1,3,1,2,0,1,2,0,3,1,2,0,3,1,2,0,3,2,0,3,3,1,2,0,1,3,1,1,2,0,1,3,2,0,3,1,3,1,3,3,2,0,1,3,1,3,1,2,0,1,2,0,3,2,0,1,1,2,0,1,2,0,1,2,0,1,2,0,3,1,3,2,0,1,3,3,2,0,1,2,0,1,3,3,3,3,3,1,3,3,3,2,0,1,2,0,3,3,1,2,0,3,1,1,2,0,3,1,2,0,1,2,0,1,3,3,2,0,1,2,0,3,3,1,2,0,3,2,0,1,2,0,3,1,2,0,1,2,0,1,2,0,1,2,0,1,2,0,1,3,2,0,1,2,0,3,3,2,0,1,3,3,1,2,0,3,3,1,3,3,3,2,0]","40","280","8","576","","<div class=""feedback-message""></div><div class=""stimulus-container""><div class=""position-wrapper""><div class=""key-label"">D</div><div class=""position-box "" data-position=""0""></div></div><div class=""position-wrapper""><div class=""key-label"">F</div><div class=""position-box "" data-position=""1""></div></div><div class=""position-wrapper""><div class=""key-label"">J</div><div class=""position-box active"" data-position=""2""></div></div><div class=""position-wrapper""><div class=""key-label"">K</div><div class=""position-box "" data-position=""3""></div></div></div><div class=""finger-diagram-container"">
			<img src=""assets/finger-diagrams/finger-diagram-4pos.png"" alt=""Finger position guide"" class=""finger-diagram"" />
		</div>","j","2","j","true","","","","",""
"","","","","","practice","feedback","html-keyboard-response","10","94151","0.0-5.0-0.0-1.0","P_2efef0f6cee120371577824551b30a495b52d5902f33d1bb1a31631d7ff36b72","6975d475053a04ec2a824d54","6975d5638f99b4a10d842154","4","[[0.02736968909322194,0.5858593039421993,0,0.3867710069645787],[0,0.060260165899335215,0.701326755417172,0.23841307868349276],[0.9726301708741357,0.0000023008162070389276,0,0.027367528309657305],[0,0.35387827489883494,0.2986732967287947,0.3474484283723703]]","[1.1240499164293296,1.0963305126500609,0.18105958573962463,1.5809472755632945]","[2,0,3,3,2,0,3,2,0,1,2,0,1,2,0,3,1,2,0,0,1,2,0,3,1,1,3,3,3,2,0,3,2,0,3,2,0,1,2,0,1,3,1,2,0,3,1,3,1,1,2,0,3,1,2,0,0,1,2,0,1,2,0,1,2,0,1,2,0,3,1,1,2,0,3,3,3,3,3,1,3,2,0,1,2,0,3,3,1,2,0,1,2,0,1,2,0,1,2,0,1,2,0,1,3,2,0,1,3,1,2,0,1,2,0,3,1,2,0,3,1,2,0,3,2,0,3,3,1,2,0,1,3,1,1,2,0,1,3,2,0,3,1,3,1,3,3,2,0,1,3,1,3,1,2,0,1,2,0,3,2,0,1,1,2,0,1,2,0,1,2,0,1,2,0,3,1,3,2,0,1,3,3,2,0,1,2,0,1,3,3,3,3,3,1,3,3,3,2,0,1,2,0,3,3,1,2,0,3,1,1,2,0,3,1,2,0,1,2,0,1,3,3,2,0,1,2,0,3,3,1,2,0,3,2,0,1,2,0,3,1,2,0,1,2,0,1,2,0,1,2,0,1,2,0,1,3,2,0,1,2,0,3,3,2,0,1,3,3,1,2,0,3,3,1,3,3,3,2,0]","40","280","8","null","","<div class=""feedback-message""><div class=""feedback-correct"">✓</div></div><div class=""stimulus-container""><div class=""position-wrapper""><div class=""key-label"">D</div><div class=""position-box "" data-position=""0""></div></div><div class=""position-wrapper""><div class=""key-label"">F</div><div class=""position-box "" data-position=""1""></div></div><div class=""position-wrapper""><div class=""key-label"">J</div><div class=""position-box active"" data-position=""2""></div></div><div class=""position-wrapper""><div class=""key-label"">K</div><div class=""position-box "" data-position=""3""></div></div></div><div class=""finger-diagram-container"">
			<img src=""assets/finger-diagrams/finger-diagram-4pos.png"" alt=""Finger position guide"" class=""finger-diagram"" />
		</div>","null","","","","","","","",""
"","","","","","practice","rsi","html-keyboard-response","11","94277","0.0-5.0-1.0","P_2efef0f6cee120371577824551b30a495b52d5902f33d1bb1a31631d7ff36b72","6975d475053a04ec2a824d54","6975d5638f99b4a10d842154","4","[[0.02736968909322194,0.5858593039421993,0,0.3867710069645787],[0,0.060260165899335215,0.701326755417172,0.23841307868349276],[0.9726301708741357,0.0000023008162070389276,0,0.027367528309657305],[0,0.35387827489883494,0.2986732967287947,0.3474484283723703]]","[1.1240499164293296,1.0963305126500609,0.18105958573962463,1.5809472755632945]","[2,0,3,3,2,0,3,2,0,1,2,0,1,2,0,3,1,2,0,0,1,2,0,3,1,1,3,3,3,2,0,3,2,0,3,2,0,1,2,0,1,3,1,2,0,3,1,3,1,1,2,0,3,1,2,0,0,1,2,0,1,2,0,1,2,0,1,2,0,3,1,1,2,0,3,3,3,3,3,1,3,2,0,1,2,0,3,3,1,2,0,1,2,0,1,2,0,1,2,0,1,2,0,1,3,2,0,1,3,1,2,0,1,2,0,3,1,2,0,3,1,2,0,3,2,0,3,3,1,2,0,1,3,1,1,2,0,1,3,2,0,3,1,3,1,3,3,2,0,1,3,1,3,1,2,0,1,2,0,3,2,0,1,1,2,0,1,2,0,1,2,0,1,2,0,3,1,3,2,0,1,3,3,2,0,1,2,0,1,3,3,3,3,3,1,3,3,3,2,0,1,2,0,3,3,1,2,0,3,1,1,2,0,3,1,2,0,1,2,0,1,3,3,2,0,1,2,0,3,3,1,2,0,3,2,0,1,2,0,3,1,2,0,1,2,0,1,2,0,1,2,0,1,2,0,1,3,2,0,1,2,0,3,3,2,0,1,3,3,1,2,0,3,3,1,3,3,3,2,0]","40","280","8","null","","<div class=""feedback-message""></div><div class=""stimulus-container""><div class=""position-wrapper""><div class=""key-label"">D</div><div class=""position-box "" data-position=""0""></div></div><div class=""position-wrapper""><div class=""key-label"">F</div><div class=""position-box "" data-position=""1""></div></div><div class=""position-wrapper""><div class=""key-label"">J</div><div class=""position-box "" data-position=""2""></div></div><div class=""position-wrapper""><div class=""key-label"">K</div><div class=""position-box "" data-position=""3""></div></div></div><div class=""finger-diagram-container"">
			<img src=""assets/finger-diagrams/finger-diagram-4pos.png"" alt=""Finger position guide"" class=""finger-diagram"" />
		</div>","null","","","","","","","",""
"","","","","","practice","stimulus","html-keyboard-response","12","94651","0.0-6.0-0.0-0.0","P_2efef0f6cee120371577824551b30a495b52d5902f33d1bb1a31631d7ff36b72","6975d475053a04ec2a824d54","6975d5638f99b4a10d842154","4","[[0.02736968909322194,0.5858593039421993,0,0.3867710069645787],[0,0.060260165899335215,0.701326755417172,0.23841307868349276],[0.9726301708741357,0.0000023008162070389276,0,0.027367528309657305],[0,0.35387827489883494,0.2986732967287947,0.3474484283723703]]","[1.1240499164293296,1.0963305126500609,0.18105958573962463,1.5809472755632945]","[2,0,3,3,2,0,3,2,0,1,2,0,1,2,0,3,1,2,0,0,1,2,0,3,1,1,3,3,3,2,0,3,2,0,3,2,0,1,2,0,1,3,1,2,0,3,1,3,1,1,2,0,3,1,2,0,0,1,2,0,1,2,0,1,2,0,1,2,0,3,1,1,2,0,3,3,3,3,3,1,3,2,0,1,2,0,3,3,1,2,0,1,2,0,1,2,0,1,2,0,1,2,0,1,3,2,0,1,3,1,2,0,1,2,0,3,1,2,0,3,1,2,0,3,2,0,3,3,1,2,0,1,3,1,1,2,0,1,3,2,0,3,1,3,1,3,3,2,0,1,3,1,3,1,2,0,1,2,0,3,2,0,1,1,2,0,1,2,0,1,2,0,1,2,0,3,1,3,2,0,1,3,3,2,0,1,2,0,1,3,3,3,3,3,1,3,3,3,2,0,1,2,0,3,3,1,2,0,3,1,1,2,0,3,1,2,0,1,2,0,1,3,3,2,0,1,2,0,3,3,1,2,0,3,2,0,1,2,0,3,1,2,0,1,2,0,1,2,0,1,2,0,1,2,0,1,3,2,0,1,2,0,3,3,2,0,1,3,3,1,2,0,3,3,1,3,3,3,2,0]","40","280","8","374","","<div class=""feedback-message""></div><div class=""stimulus-container""><div class=""position-wrapper""><div class=""key-label"">D</div><div class=""position-box active"" data-position=""0""></div></div><div class=""position-wrapper""><div class=""key-label"">F</div><div class=""position-box "" data-position=""1""></div></div><div class=""position-wrapper""><div class=""key-label"">J</div><div class=""position-box "" data-position=""2""></div></div><div class=""position-wrapper""><div class=""key-label"">K</div><div class=""position-box "" data-position=""3""></div></div></div><div class=""finger-diagram-container"">
			<img src=""assets/finger-diagrams/finger-diagram-4pos.png"" alt=""Finger position guide"" class=""finger-diagram"" />
		</div>","d","0","d","true","","","","",""
"","","","","","practice","feedback","html-keyboard-response","13","94857","0.0-6.0-0.0-1.0","P_2efef0f6cee120371577824551b30a495b52d5902f33d1bb1a31631d7ff36b72","6975d475053a04ec2a824d54","6975d5638f99b4a10d842154","4","[[0.02736968909322194,0.5858593039421993,0,0.3867710069645787],[0,0.060260165899335215,0.701326755417172,0.23841307868349276],[0.9726301708741357,0.0000023008162070389276,0,0.027367528309657305],[0,0.35387827489883494,0.2986732967287947,0.3474484283723703]]","[1.1240499164293296,1.0963305126500609,0.18105958573962463,1.5809472755632945]","[2,0,3,3,2,0,3,2,0,1,2,0,1,2,0,3,1,2,0,0,1,2,0,3,1,1,3,3,3,2,0,3,2,0,3,2,0,1,2,0,1,3,1,2,0,3,1,3,1,1,2,0,3,1,2,0,0,1,2,0,1,2,0,1,2,0,1,2,0,3,1,1,2,0,3,3,3,3,3,1,3,2,0,1,2,0,3,3,1,2,0,1,2,0,1,2,0,1,2,0,1,2,0,1,3,2,0,1,3,1,2,0,1,2,0,3,1,2,0,3,1,2,0,3,2,0,3,3,1,2,0,1,3,1,1,2,0,1,3,2,0,3,1,3,1,3,3,2,0,1,3,1,3,1,2,0,1,2,0,3,2,0,1,1,2,0,1,2,0,1,2,0,1,2,0,3,1,3,2,0,1,3,3,2,0,1,2,0,1,3,3,3,3,3,1,3,3,3,2,0,1,2,0,3,3,1,2,0,3,1,1,2,0,3,1,2,0,1,2,0,1,3,3,2,0,1,2,0,3,3,1,2,0,3,2,0,1,2,0,3,1,2,0,1,2,0,1,2,0,1,2,0,1,2,0,1,3,2,0,1,2,0,3,3,2,0,1,3,3,1,2,0,3,3,1,3,3,3,2,0]","40","280","8","null","","<div class=""feedback-message""><div class=""feedback-correct"">✓</div></div><div class=""stimulus-container""><div class=""position-wrapper""><div class=""key-label"">D</div><div class=""position-box active"" data-position=""0""></div></div><div class=""position-wrapper""><div class=""key-label"">F</div><div class=""position-box "" data-position=""1""></div></div><div class=""position-wrapper""><div class=""key-label"">J</div><div class=""position-box "" data-position=""2""></div></div><div class=""position-wrapper""><div class=""key-label"">K</div><div class=""position-box "" data-position=""3""></div></div></div><div class=""finger-diagram-container"">
			<img src=""assets/finger-diagrams/finger-diagram-4pos.png"" alt=""Finger position guide"" class=""finger-diagram"" />
		</div>","null","","","","","","","",""
"","","","","","practice","rsi","html-keyboard-response","14","94982","0.0-6.0-1.0","P_2efef0f6cee120371577824551b30a495b52d5902f33d1bb1a31631d7ff36b72","6975d475053a04ec2a824d54","6975d5638f99b4a10d842154","4","[[0.02736968909322194,0.5858593039421993,0,0.3867710069645787],[0,0.060260165899335215,0.701326755417172,0.23841307868349276],[0.9726301708741357,0.0000023008162070389276,0,0.027367528309657305],[0,0.35387827489883494,0.2986732967287947,0.3474484283723703]]","[1.1240499164293296,1.0963305126500609,0.18105958573962463,1.5809472755632945]","[2,0,3,3,2,0,3,2,0,1,2,0,1,2,0,3,1,2,0,0,1,2,0,3,1,1,3,3,3,2,0,3,2,0,3,2,0,1,2,0,1,3,1,2,0,3,1,3,1,1,2,0,3,1,2,0,0,1,2,0,1,2,0,1,2,0,1,2,0,3,1,1,2,0,3,3,3,3,3,1,3,2,0,1,2,0,3,3,1,2,0,1,2,0,1,2,0,1,2,0,1,2,0,1,3,2,0,1,3,1,2,0,1,2,0,3,1,2,0,3,1,2,0,3,2,0,3,3,1,2,0,1,3,1,1,2,0,1,3,2,0,3,1,3,1,3,3,2,0,1,3,1,3,1,2,0,1,2,0,3,2,0,1,1,2,0,1,2,0,1,2,0,1,2,0,3,1,3,2,0,1,3,3,2,0,1,2,0,1,3,3,3,3,3,1,3,3,3,2,0,1,2,0,3,3,1,2,0,3,1,1,2,0,3,1,2,0,1,2,0,1,3,3,2,0,1,2,0,3,3,1,2,0,3,2,0,1,2,0,3,1,2,0,1,2,0,1,2,0,1,2,0,1,2,0,1,3,2,0,1,2,0,3,3,2,0,1,3,3,1,2,0,3,3,1,3,3,3,2,0]","40","280","8","null","","<div class=""feedback-message""></div><div class=""stimulus-container""><div class=""position-wrapper""><div class=""key-label"">D</div><div class=""position-box "" data-position=""0""></div></div><div class=""position-wrapper""><div class=""key-label"">F</div><div class=""position-box "" data-position=""1""></div></div><div class=""position-wrapper""><div class=""key-label"">J</div><div class=""position-box "" data-position=""2""></div></div><div class=""position-wrapper""><div class=""key-label"">K</div><div class=""position-box "" data-position=""3""></div></div></div><div class=""finger-diagram-container"">
			<img src=""assets/finger-diagrams/finger-diagram-4pos.png"" alt=""Finger position guide"" class=""finger-diagram"" />
		</div>","null","","","","","","","",""
"","","","","","practice","stimulus","html-keyboard-response","15","95468","0.0-7.0-0.0-0.0","P_2efef0f6cee120371577824551b30a495b52d5902f33d1bb1a31631d7ff36b72","6975d475053a04ec2a824d54","6975d5638f99b4a10d842154","4","[[0.02736968909322194,0.5858593039421993,0,0.3867710069645787],[0,0.060260165899335215,0.701326755417172,0.23841307868349276],[0.9726301708741357,0.0000023008162070389276,0,0.027367528309657305],[0,0.35387827489883494,0.2986732967287947,0.3474484283723703]]","[1.1240499164293296,1.0963305126500609,0.18105958573962463,1.5809472755632945]","[2,0,3,3,2,0,3,2,0,1,2,0,1,2,0,3,1,2,0,0,1,2,0,3,1,1,3,3,3,2,0,3,2,0,3,2,0,1,2,0,1,3,1,2,0,3,1,3,1,1,2,0,3,1,2,0,0,1,2,0,1,2,0,1,2,0,1,2,0,3,1,1,2,0,3,3,3,3,3,1,3,2,0,1,2,0,3,3,1,2,0,1,2,0,1,2,0,1,2,0,1,2,0,1,3,2,0,1,3,1,2,0,1,2,0,3,1,2,0,3,1,2,0,3,2,0,3,3,1,2,0,1,3,1,1,2,0,1,3,2,0,3,1,3,1,3,3,2,0,1,3,1,3,1,2,0,1,2,0,3,2,0,1,1,2,0,1,2,0,1,2,0,1,2,0,3,1,3,2,0,1,3,3,2,0,1,2,0,1,3,3,3,3,3,1,3,3,3,2,0,1,2,0,3,3,1,2,0,3,1,1,2,0,3,1,2,0,1,2,0,1,3,3,2,0,1,2,0,3,3,1,2,0,3,2,0,1,2,0,3,1,2,0,1,2,0,1,2,0,1,2,0,1,2,0,1,3,2,0,1,2,0,3,3,2,0,1,3,3,1,2,0,3,3,1,3,3,3,2,0]","40","280","8","485","","<div class=""feedback-message""></div><div class=""stimulus-container""><div class=""position-wrapper""><div class=""key-label"">D</div><div class=""position-box "" data-position=""0""></div></div><div class=""position-wrapper""><div class=""key-label"">F</div><div class=""position-box "" data-position=""1""></div></div><div class=""position-wrapper""><div class=""key-label"">J</div><div class=""position-box active"" data-position=""2""></div></div><div class=""position-wrapper""><div class=""key-label"">K</div><div class=""position-box "" data-position=""3""></div></div></div><div class=""finger-diagram-container"">
			<img src=""assets/finger-diagrams/finger-diagram-4pos.png"" alt=""Finger position guide"" class=""finger-diagram"" />
		</div>","j","2","j","true","","","","",""
"","","","","","practice","feedback","html-keyboard-response","16","95668","0.0-7.0-0.0-1.0","P_2efef0f6cee120371577824551b30a495b52d5902f33d1bb1a31631d7ff36b72","6975d475053a04ec2a824d54","6975d5638f99b4a10d842154","4","[[0.02736968909322194,0.5858593039421993,0,0.3867710069645787],[0,0.060260165899335215,0.701326755417172,0.23841307868349276],[0.9726301708741357,0.0000023008162070389276,0,0.027367528309657305],[0,0.35387827489883494,0.2986732967287947,0.3474484283723703]]","[1.1240499164293296,1.0963305126500609,0.18105958573962463,1.5809472755632945]","[2,0,3,3,2,0,3,2,0,1,2,0,1,2,0,3,1,2,0,0,1,2,0,3,1,1,3,3,3,2,0,3,2,0,3,2,0,1,2,0,1,3,1,2,0,3,1,3,1,1,2,0,3,1,2,0,0,1,2,0,1,2,0,1,2,0,1,2,0,3,1,1,2,0,3,3,3,3,3,1,3,2,0,1,2,0,3,3,1,2,0,1,2,0,1,2,0,1,2,0,1,2,0,1,3,2,0,1,3,1,2,0,1,2,0,3,1,2,0,3,1,2,0,3,2,0,3,3,1,2,0,1,3,1,1,2,0,1,3,2,0,3,1,3,1,3,3,2,0,1,3,1,3,1,2,0,1,2,0,3,2,0,1,1,2,0,1,2,0,1,2,0,1,2,0,3,1,3,2,0,1,3,3,2,0,1,2,0,1,3,3,3,3,3,1,3,3,3,2,0,1,2,0,3,3,1,2,0,3,1,1,2,0,3,1,2,0,1,2,0,1,3,3,2,0,1,2,0,3,3,1,2,0,3,2,0,1,2,0,3,1,2,0,1,2,0,1,2,0,1,2,0,1,2,0,1,3,2,0,1,2,0,3,3,2,0,1,3,3,1,2,0,3,3,1,3,3,3,2,0]","40","280","8","null","","<div class=""feedback-message""><div class=""feedback-correct"">✓</div></div><div class=""stimulus-container""><div class=""position-wrapper""><div class=""key-label"">D</div><div class=""position-box "" data-position=""0""></div></div><div class=""position-wrapper""><div class=""key-label"">F</div><div class=""position-box "" data-position=""1""></div></div><div class=""position-wrapper""><div class=""key-label"">J</div><div class=""position-box active"" data-position=""2""></div></div><div class=""position-wrapper""><div class=""key-label"">K</div><div class=""position-box "" data-position=""3""></div></div></div><div class=""finger-diagram-container"">
			<img src=""assets/finger-diagrams/finger-diagram-4pos.png"" alt=""Finger position guide"" class=""finger-diagram"" />
		</div>","null","","","","","","","",""
"","","","","","practice","rsi","html-keyboard-response","17","95793","0.0-7.0-1.0","P_2efef0f6cee120371577824551b30a495b52d5902f33d1bb1a31631d7ff36b72","6975d475053a04ec2a824d54","6975d5638f99b4a10d842154","4","[[0.02736968909322194,0.5858593039421993,0,0.3867710069645787],[0,0.060260165899335215,0.701326755417172,0.23841307868349276],[0.9726301708741357,0.0000023008162070389276,0,0.027367528309657305],[0,0.35387827489883494,0.2986732967287947,0.3474484283723703]]","[1.1240499164293296,1.0963305126500609,0.18105958573962463,1.5809472755632945]","[2,0,3,3,2,0,3,2,0,1,2,0,1,2,0,3,1,2,0,0,1,2,0,3,1,1,3,3,3,2,0,3,2,0,3,2,0,1,2,0,1,3,1,2,0,3,1,3,1,1,2,0,3,1,2,0,0,1,2,0,1,2,0,1,2,0,1,2,0,3,1,1,2,0,3,3,3,3,3,1,3,2,0,1,2,0,3,3,1,2,0,1,2,0,1,2,0,1,2,0,1,2,0,1,3,2,0,1,3,1,2,0,1,2,0,3,1,2,0,3,1,2,0,3,2,0,3,3,1,2,0,1,3,1,1,2,0,1,3,2,0,3,1,3,1,3,3,2,0,1,3,1,3,1,2,0,1,2,0,3,2,0,1,1,2,0,1,2,0,1,2,0,1,2,0,3,1,3,2,0,1,3,3,2,0,1,2,0,1,3,3,3,3,3,1,3,3,3,2,0,1,2,0,3,3,1,2,0,3,1,1,2,0,3,1,2,0,1,2,0,1,3,3,2,0,1,2,0,3,3,1,2,0,3,2,0,1,2,0,3,1,2,0,1,2,0,1,2,0,1,2,0,1,2,0,1,3,2,0,1,2,0,3,3,2,0,1,3,3,1,2,0,3,3,1,3,3,3,2,0]","40","280","8","null","","<div class=""feedback-message""></div><div class=""stimulus-container""><div class=""position-wrapper""><div class=""key-label"">D</div><div class=""position-box "" data-position=""0""></div></div><div class=""position-wrapper""><div class=""key-label"">F</div><div class=""position-box "" data-position=""1""></div></div><div class=""position-wrapper""><div class=""key-label"">J</div><div class=""position-box "" data-position=""2""></div></div><div class=""position-wrapper""><div class=""key-label"">K</div><div class=""position-box "" data-position=""3""></div></div></div><div class=""finger-diagram-container"">
			<img src=""assets/finger-diagrams/finger-diagram-4pos.png"" alt=""Finger position guide"" class=""finger-diagram"" />
		</div>","null","","","","","","","",""
"","","","","","practice","stimulus","html-keyboard-response","18","96148","0.0-8.0-0.0-0.0","P_2efef0f6cee120371577824551b30a495b52d5902f33d1bb1a31631d7ff36b72","6975d475053a04ec2a824d54","6975d5638f99b4a10d842154","4","[[0.02736968909322194,0.5858593039421993,0,0.3867710069645787],[0,0.060260165899335215,0.701326755417172,0.23841307868349276],[0.9726301708741357,0.0000023008162070389276,0,0.027367528309657305],[0,0.35387827489883494,0.2986732967287947,0.3474484283723703]]","[1.1240499164293296,1.0963305126500609,0.18105958573962463,1.5809472755632945]","[2,0,3,3,2,0,3,2,0,1,2,0,1,2,0,3,1,2,0,0,1,2,0,3,1,1,3,3,3,2,0,3,2,0,3,2,0,1,2,0,1,3,1,2,0,3,1,3,1,1,2,0,3,1,2,0,0,1,2,0,1,2,0,1,2,0,1,2,0,3,1,1,2,0,3,3,3,3,3,1,3,2,0,1,2,0,3,3,1,2,0,1,2,0,1,2,0,1,2,0,1,2,0,1,3,2,0,1,3,1,2,0,1,2,0,3,1,2,0,3,1,2,0,3,2,0,3,3,1,2,0,1,3,1,1,2,0,1,3,2,0,3,1,3,1,3,3,2,0,1,3,1,3,1,2,0,1,2,0,3,2,0,1,1,2,0,1,2,0,1,2,0,1,2,0,3,1,3,2,0,1,3,3,2,0,1,2,0,1,3,3,3,3,3,1,3,3,3,2,0,1,2,0,3,3,1,2,0,3,1,1,2,0,3,1,2,0,1,2,0,1,3,3,2,0,1,2,0,3,3,1,2,0,3,2,0,1,2,0,3,1,2,0,1,2,0,1,2,0,1,2,0,1,2,0,1,3,2,0,1,2,0,3,3,2,0,1,3,3,1,2,0,3,3,1,3,3,3,2,0]","40","280","8","354","","<div class=""feedback-message""></div><div class=""stimulus-container""><div class=""position-wrapper""><div class=""key-label"">D</div><div class=""position-box "" data-position=""0""></div></div><div class=""position-wrapper""><div class=""key-label"">F</div><div class=""position-box "" data-position=""1""></div></div><div class=""position-wrapper""><div class=""key-label"">J</div><div class=""position-box "" data-position=""2""></div></div><div class=""position-wrapper""><div class=""key-label"">K</div><div class=""position-box active"" data-position=""3""></div></div></div><div class=""finger-diagram-container"">
			<img src=""assets/finger-diagrams/finger-diagram-4pos.png"" alt=""Finger position guide"" class=""finger-diagram"" />
		</div>","k","3","k","true","","","","",""
"","","","","","practice","feedback","html-keyboard-response","19","96351","0.0-8.0-0.0-1.0","P_2efef0f6cee120371577824551b30a495b52d5902f33d1bb1a31631d7ff36b72","6975d475053a04ec2a824d54","6975d5638f99b4a10d842154","4","[[0.02736968909322194,0.5858593039421993,0,0.3867710069645787],[0,0.060260165899335215,0.701326755417172,0.23841307868349276],[0.9726301708741357,0.0000023008162070389276,0,0.027367528309657305],[0,0.35387827489883494,0.2986732967287947,0.3474484283723703]]","[1.1240499164293296,1.0963305126500609,0.18105958573962463,1.5809472755632945]","[2,0,3,3,2,0,3,2,0,1,2,0,1,2,0,3,1,2,0,0,1,2,0,3,1,1,3,3,3,2,0,3,2,0,3,2,0,1,2,0,1,3,1,2,0,3,1,3,1,1,2,0,3,1,2,0,0,1,2,0,1,2,0,1,2,0,1,2,0,3,1,1,2,0,3,3,3,3,3,1,3,2,0,1,2,0,3,3,1,2,0,1,2,0,1,2,0,1,2,0,1,2,0,1,3,2,0,1,3,1,2,0,1,2,0,3,1,2,0,3,1,2,0,3,2,0,3,3,1,2,0,1,3,1,1,2,0,1,3,2,0,3,1,3,1,3,3,2,0,1,3,1,3,1,2,0,1,2,0,3,2,0,1,1,2,0,1,2,0,1,2,0,1,2,0,3,1,3,2,0,1,3,3,2,0,1,2,0,1,3,3,3,3,3,1,3,3,3,2,0,1,2,0,3,3,1,2,0,3,1,1,2,0,3,1,2,0,1,2,0,1,3,3,2,0,1,2,0,3,3,1,2,0,3,2,0,1,2,0,3,1,2,0,1,2,0,1,2,0,1,2,0,1,2,0,1,3,2,0,1,2,0,3,3,2,0,1,3,3,1,2,0,3,3,1,3,3,3,2,0]","40","280","8","null","","<div class=""feedback-message""><div class=""feedback-correct"">✓</div></div><div class=""stimulus-container""><div class=""position-wrapper""><div class=""key-label"">D</div><div class=""position-box "" data-position=""0""></div></div><div class=""position-wrapper""><div class=""key-label"">F</div><div class=""position-box "" data-position=""1""></div></div><div class=""position-wrapper""><div class=""key-label"">J</div><div class=""position-box "" data-position=""2""></div></div><div class=""position-wrapper""><div class=""key-label"">K</div><div class=""position-box active"" data-position=""3""></div></div></div><div class=""finger-diagram-container"">
			<img src=""assets/finger-diagrams/finger-diagram-4pos.png"" alt=""Finger position guide"" class=""finger-diagram"" />
		</div>","null","","","","","","","",""
"","","","","","practice","rsi","html-keyboard-response","20","96478","0.0-8.0-1.0","P_2efef0f6cee120371577824551b30a495b52d5902f33d1bb1a31631d7ff36b72","6975d475053a04ec2a824d54","6975d5638f99b4a10d842154","4","[[0.02736968909322194,0.5858593039421993,0,0.3867710069645787],[0,0.060260165899335215,0.701326755417172,0.23841307868349276],[0.9726301708741357,0.0000023008162070389276,0,0.027367528309657305],[0,0.35387827489883494,0.2986732967287947,0.3474484283723703]]","[1.1240499164293296,1.0963305126500609,0.18105958573962463,1.5809472755632945]","[2,0,3,3,2,0,3,2,0,1,2,0,1,2,0,3,1,2,0,0,1,2,0,3,1,1,3,3,3,2,0,3,2,0,3,2,0,1,2,0,1,3,1,2,0,3,1,3,1,1,2,0,3,1,2,0,0,1,2,0,1,2,0,1,2,0,1,2,0,3,1,1,2,0,3,3,3,3,3,1,3,2,0,1,2,0,3,3,1,2,0,1,2,0,1,2,0,1,2,0,1,2,0,1,3,2,0,1,3,1,2,0,1,2,0,3,1,2,0,3,1,2,0,3,2,0,3,3,1,2,0,1,3,1,1,2,0,1,3,2,0,3,1,3,1,3,3,2,0,1,3,1,3,1,2,0,1,2,0,3,2,0,1,1,2,0,1,2,0,1,2,0,1,2,0,3,1,3,2,0,1,3,3,2,0,1,2,0,1,3,3,3,3,3,1,3,3,3,2,0,1,2,0,3,3,1,2,0,3,1,1,2,0,3,1,2,0,1,2,0,1,3,3,2,0,1,2,0,3,3,1,2,0,3,2,0,1,2,0,3,1,2,0,1,2,0,1,2,0,1,2,0,1,2,0,1,3,2,0,1,2,0,3,3,2,0,1,3,3,1,2,0,3,3,1,3,3,3,2,0]","40","280","8","null","","<div class=""feedback-message""></div><div class=""stimulus-container""><div class=""position-wrapper""><div class=""key-label"">D</div><div class=""position-box "" data-position=""0""></div></div><div class=""position-wrapper""><div class=""key-label"">F</div><div class=""position-box "" data-position=""1""></div></div><div class=""position-wrapper""><div class=""key-label"">J</div><div class=""position-box "" data-position=""2""></div></div><div class=""position-wrapper""><div class=""key-label"">K</div><div class=""position-box "" data-position=""3""></div></div></div><div class=""finger-diagram-container"">
			<img src=""assets/finger-diagrams/finger-diagram-4pos.png"" alt=""Finger position guide"" class=""finger-diagram"" />
		</div>","null","","","","","","","",""
"","","","","","practice","stimulus","html-keyboard-response","21","96868","0.0-9.0-0.0-0.0","P_2efef0f6cee120371577824551b30a495b52d5902f33d1bb1a31631d7ff36b72","6975d475053a04ec2a824d54","6975d5638f99b4a10d842154","4","[[0.02736968909322194,0.5858593039421993,0,0.3867710069645787],[0,0.060260165899335215,0.701326755417172,0.23841307868349276],[0.9726301708741357,0.0000023008162070389276,0,0.027367528309657305],[0,0.35387827489883494,0.2986732967287947,0.3474484283723703]]","[1.1240499164293296,1.0963305126500609,0.18105958573962463,1.5809472755632945]","[2,0,3,3,2,0,3,2,0,1,2,0,1,2,0,3,1,2,0,0,1,2,0,3,1,1,3,3,3,2,0,3,2,0,3,2,0,1,2,0,1,3,1,2,0,3,1,3,1,1,2,0,3,1,2,0,0,1,2,0,1,2,0,1,2,0,1,2,0,3,1,1,2,0,3,3,3,3,3,1,3,2,0,1,2,0,3,3,1,2,0,1,2,0,1,2,0,1,2,0,1,2,0,1,3,2,0,1,3,1,2,0,1,2,0,3,1,2,0,3,1,2,0,3,2,0,3,3,1,2,0,1,3,1,1,2,0,1,3,2,0,3,1,3,1,3,3,2,0,1,3,1,3,1,2,0,1,2,0,3,2,0,1,1,2,0,1,2,0,1,2,0,1,2,0,3,1,3,2,0,1,3,3,2,0,1,2,0,1,3,3,3,3,3,1,3,3,3,2,0,1,2,0,3,3,1,2,0,3,1,1,2,0,3,1,2,0,1,2,0,1,3,3,2,0,1,2,0,3,3,1,2,0,3,2,0,1,2,0,3,1,2,0,1,2,0,1,2,0,1,2,0,1,2,0,1,3,2,0,1,2,0,3,3,2,0,1,3,3,1,2,0,3,3,1,3,3,3,2,0]","40","280","8","390","","<div class=""feedback-message""></div><div class=""stimulus-container""><div class=""position-wrapper""><div class=""key-label"">D</div><div class=""position-box "" data-position=""0""></div></div><div class=""position-wrapper""><div class=""key-label"">F</div><div class=""position-box active"" data-position=""1""></div></div><div class=""position-wrapper""><div class=""key-label"">J</div><div class=""position-box "" data-position=""2""></div></div><div class=""position-wrapper""><div class=""key-label"">K</div><div class=""position-box "" data-position=""3""></div></div></div><div class=""finger-diagram-container"">
			<img src=""assets/finger-diagrams/finger-diagram-4pos.png"" alt=""Finger position guide"" class=""finger-diagram"" />
		</div>","f","1","f","true","","","","",""
"","","","","","practice","feedback","html-keyboard-response","22","97071","0.0-9.0-0.0-1.0","P_2efef0f6cee120371577824551b30a495b52d5902f33d1bb1a31631d7ff36b72","6975d475053a04ec2a824d54","6975d5638f99b4a10d842154","4","[[0.02736968909322194,0.5858593039421993,0,0.3867710069645787],[0,0.060260165899335215,0.701326755417172,0.23841307868349276],[0.9726301708741357,0.0000023008162070389276,0,0.027367528309657305],[0,0.35387827489883494,0.2986732967287947,0.3474484283723703]]","[1.1240499164293296,1.0963305126500609,0.18105958573962463,1.5809472755632945]","[2,0,3,3,2,0,3,2,0,1,2,0,1,2,0,3,1,2,0,0,1,2,0,3,1,1,3,3,3,2,0,3,2,0,3,2,0,1,2,0,1,3,1,2,0,3,1,3,1,1,2,0,3,1,2,0,0,1,2,0,1,2,0,1,2,0,1,2,0,3,1,1,2,0,3,3,3,3,3,1,3,2,0,1,2,0,3,3,1,2,0,1,2,0,1,2,0,1,2,0,1,2,0,1,3,2,0,1,3,1,2,0,1,2,0,3,1,2,0,3,1,2,0,3,2,0,3,3,1,2,0,1,3,1,1,2,0,1,3,2,0,3,1,3,1,3,3,2,0,1,3,1,3,1,2,0,1,2,0,3,2,0,1,1,2,0,1,2,0,1,2,0,1,2,0,3,1,3,2,0,1,3,3,2,0,1,2,0,1,3,3,3,3,3,1,3,3,3,2,0,1,2,0,3,3,1,2,0,3,1,1,2,0,3,1,2,0,1,2,0,1,3,3,2,0,1,2,0,3,3,1,2,0,3,2,0,1,2,0,3,1,2,0,1,2,0,1,2,0,1,2,0,1,2,0,1,3,2,0,1,2,0,3,3,2,0,1,3,3,1,2,0,3,3,1,3,3,3,2,0]","40","280","8","null","","<div class=""feedback-message""><div class=""feedback-correct"">✓</div></div><div class=""stimulus-container""><div class=""position-wrapper""><div class=""key-label"">D</div><div class=""position-box "" data-position=""0""></div></div><div class=""position-wrapper""><div class=""key-label"">F</div><div class=""position-box active"" data-position=""1""></div></div><div class=""position-wrapper""><div class=""key-label"">J</div><div class=""position-box "" data-position=""2""></div></div><div class=""position-wrapper""><div class=""key-label"">K</div><div class=""position-box "" data-position=""3""></div></div></div><div class=""finger-diagram-container"">
			<img src=""assets/finger-diagrams/finger-diagram-4pos.png"" alt=""Finger position guide"" class=""finger-diagram"" />
		</div>","null","","","","","","","",""
"","","","","","practice","rsi","html-keyboard-response","23","97194","0.0-9.0-1.0","P_2efef0f6cee120371577824551b30a495b52d5902f33d1bb1a31631d7ff36b72","6975d475053a04ec2a824d54","6975d5638f99b4a10d842154","4","[[0.02736968909322194,0.5858593039421993,0,0.3867710069645787],[0,0.060260165899335215,0.701326755417172,0.23841307868349276],[0.9726301708741357,0.0000023008162070389276,0,0.027367528309657305],[0,0.35387827489883494,0.2986732967287947,0.3474484283723703]]","[1.1240499164293296,1.0963305126500609,0.18105958573962463,1.5809472755632945]","[2,0,3,3,2,0,3,2,0,1,2,0,1,2,0,3,1,2,0,0,1,2,0,3,1,1,3,3,3,2,0,3,2,0,3,2,0,1,2,0,1,3,1,2,0,3,1,3,1,1,2,0,3,1,2,0,0,1,2,0,1,2,0,1,2,0,1,2,0,3,1,1,2,0,3,3,3,3,3,1,3,2,0,1,2,0,3,3,1,2,0,1,2,0,1,2,0,1,2,0,1,2,0,1,3,2,0,1,3,1,2,0,1,2,0,3,1,2,0,3,1,2,0,3,2,0,3,3,1,2,0,1,3,1,1,2,0,1,3,2,0,3,1,3,1,3,3,2,0,1,3,1,3,1,2,0,1,2,0,3,2,0,1,1,2,0,1,2,0,1,2,0,1,2,0,3,1,3,2,0,1,3,3,2,0,1,2,0,1,3,3,3,3,3,1,3,3,3,2,0,1,2,0,3,3,1,2,0,3,1,1,2,0,3,1,2,0,1,2,0,1,3,3,2,0,1,2,0,3,3,1,2,0,3,2,0,1,2,0,3,1,2,0,1,2,0,1,2,0,1,2,0,1,2,0,1,3,2,0,1,2,0,3,3,2,0,1,3,3,1,2,0,3,3,1,3,3,3,2,0]","40","280","8","null","","<div class=""feedback-message""></div><div class=""stimulus-container""><div class=""position-wrapper""><div class=""key-label"">D</div><div class=""position-box "" data-position=""0""></div></div><div class=""position-wrapper""><div class=""key-label"">F</div><div class=""position-box "" data-position=""1""></div></div><div class=""position-wrapper""><div class=""key-label"">J</div><div class=""position-box "" data-position=""2""></div></div><div class=""position-wrapper""><div class=""key-label"">K</div><div class=""position-box "" data-position=""3""></div></div></div><div class=""finger-diagram-container"">
			<img src=""assets/finger-diagrams/finger-diagram-4pos.png"" alt=""Finger position guide"" class=""finger-diagram"" />
		</div>","null","","","","","","","",""
"","","","","","practice","stimulus","html-keyboard-response","24","97556","0.0-10.0-0.0-0.0","P_2efef0f6cee120371577824551b30a495b52d5902f33d1bb1a31631d7ff36b72","6975d475053a04ec2a824d54","6975d5638f99b4a10d842154","4","[[0.02736968909322194,0.5858593039421993,0,0.3867710069645787],[0,0.060260165899335215,0.701326755417172,0.23841307868349276],[0.9726301708741357,0.0000023008162070389276,0,0.027367528309657305],[0,0.35387827489883494,0.2986732967287947,0.3474484283723703]]","[1.1240499164293296,1.0963305126500609,0.18105958573962463,1.5809472755632945]","[2,0,3,3,2,0,3,2,0,1,2,0,1,2,0,3,1,2,0,0,1,2,0,3,1,1,3,3,3,2,0,3,2,0,3,2,0,1,2,0,1,3,1,2,0,3,1,3,1,1,2,0,3,1,2,0,0,1,2,0,1,2,0,1,2,0,1,2,0,3,1,1,2,0,3,3,3,3,3,1,3,2,0,1,2,0,3,3,1,2,0,1,2,0,1,2,0,1,2,0,1,2,0,1,3,2,0,1,3,1,2,0,1,2,0,3,1,2,0,3,1,2,0,3,2,0,3,3,1,2,0,1,3,1,1,2,0,1,3,2,0,3,1,3,1,3,3,2,0,1,3,1,3,1,2,0,1,2,0,3,2,0,1,1,2,0,1,2,0,1,2,0,1,2,0,3,1,3,2,0,1,3,3,2,0,1,2,0,1,3,3,3,3,3,1,3,3,3,2,0,1,2,0,3,3,1,2,0,3,1,1,2,0,3,1,2,0,1,2,0,1,3,3,2,0,1,2,0,3,3,1,2,0,3,2,0,1,2,0,3,1,2,0,1,2,0,1,2,0,1,2,0,1,2,0,1,3,2,0,1,2,0,3,3,2,0,1,3,3,1,2,0,3,3,1,3,3,3,2,0]","40","280","8","360","","<div class=""feedback-message""></div><div class=""stimulus-container""><div class=""position-wrapper""><div class=""key-label"">D</div><div class=""position-box active"" data-position=""0""></div></div><div class=""position-wrapper""><div class=""key-label"">F</div><div class=""position-box "" data-position=""1""></div></div><div class=""position-wrapper""><div class=""key-label"">J</div><div class=""position-box "" data-position=""2""></div></div><div class=""position-wrapper""><div class=""key-label"">K</div><div class=""position-box "" data-position=""3""></div></div></div><div class=""finger-diagram-container"">
			<img src=""assets/finger-diagrams/finger-diagram-4pos.png"" alt=""Finger position guide"" class=""finger-diagram"" />
		</div>","d","0","d","true","","","","",""
"","","","","","practice","feedback","html-keyboard-response","25","97758","0.0-10.0-0.0-1.0","P_2efef0f6cee120371577824551b30a495b52d5902f33d1bb1a31631d7ff36b72","6975d475053a04ec2a824d54","6975d5638f99b4a10d842154","4","[[0.02736968909322194,0.5858593039421993,0,0.3867710069645787],[0,0.060260165899335215,0.701326755417172,0.23841307868349276],[0.9726301708741357,0.0000023008162070389276,0,0.027367528309657305],[0,0.35387827489883494,0.2986732967287947,0.3474484283723703]]","[1.1240499164293296,1.0963305126500609,0.18105958573962463,1.5809472755632945]","[2,0,3,3,2,0,3,2,0,1,2,0,1,2,0,3,1,2,0,0,1,2,0,3,1,1,3,3,3,2,0,3,2,0,3,2,0,1,2,0,1,3,1,2,0,3,1,3,1,1,2,0,3,1,2,0,0,1,2,0,1,2,0,1,2,0,1,2,0,3,1,1,2,0,3,3,3,3,3,1,3,2,0,1,2,0,3,3,1,2,0,1,2,0,1,2,0,1,2,0,1,2,0,1,3,2,0,1,3,1,2,0,1,2,0,3,1,2,0,3,1,2,0,3,2,0,3,3,1,2,0,1,3,1,1,2,0,1,3,2,0,3,1,3,1,3,3,2,0,1,3,1,3,1,2,0,1,2,0,3,2,0,1,1,2,0,1,2,0,1,2,0,1,2,0,3,1,3,2,0,1,3,3,2,0,1,2,0,1,3,3,3,3,3,1,3,3,3,2,0,1,2,0,3,3,1,2,0,3,1,1,2,0,3,1,2,0,1,2,0,1,3,3,2,0,1,2,0,3,3,1,2,0,3,2,0,1,2,0,3,1,2,0,1,2,0,1,2,0,1,2,0,1,2,0,1,3,2,0,1,2,0,3,3,2,0,1,3,3,1,2,0,3,3,1,3,3,3,2,0]","40","280","8","null","","<div class=""feedback-message""><div class=""feedback-correct"">✓</div></div><div class=""stimulus-container""><div class=""position-wrapper""><div class=""key-label"">D</div><div class=""position-box active"" data-position=""0""></div></div><div class=""position-wrapper""><div class=""key-label"">F</div><div class=""position-box "" data-position=""1""></div></div><div class=""position-wrapper""><div class=""key-label"">J</div><div class=""position-box "" data-position=""2""></div></div><div class=""position-wrapper""><div class=""key-label"">K</div><div class=""position-box "" data-position=""3""></div></div></div><div class=""finger-diagram-container"">
			<img src=""assets/finger-diagrams/finger-diagram-4pos.png"" alt=""Finger position guide"" class=""finger-diagram"" />
		</div>","null","","","","","","","",""
"","","","","","practice","rsi","html-keyboard-response","26","97883","0.0-10.0-1.0","P_2efef0f6cee120371577824551b30a495b52d5902f33d1bb1a31631d7ff36b72","6975d475053a04ec2a824d54","6975d5638f99b4a10d842154","4","[[0.02736968909322194,0.5858593039421993,0,0.3867710069645787],[0,0.060260165899335215,0.701326755417172,0.23841307868349276],[0.9726301708741357,0.0000023008162070389276,0,0.027367528309657305],[0,0.35387827489883494,0.2986732967287947,0.3474484283723703]]","[1.1240499164293296,1.0963305126500609,0.18105958573962463,1.5809472755632945]","[2,0,3,3,2,0,3,2,0,1,2,0,1,2,0,3,1,2,0,0,1,2,0,3,1,1,3,3,3,2,0,3,2,0,3,2,0,1,2,0,1,3,1,2,0,3,1,3,1,1,2,0,3,1,2,0,0,1,2,0,1,2,0,1,2,0,1,2,0,3,1,1,2,0,3,3,3,3,3,1,3,2,0,1,2,0,3,3,1,2,0,1,2,0,1,2,0,1,2,0,1,2,0,1,3,2,0,1,3,1,2,0,1,2,0,3,1,2,0,3,1,2,0,3,2,0,3,3,1,2,0,1,3,1,1,2,0,1,3,2,0,3,1,3,1,3,3,2,0,1,3,1,3,1,2,0,1,2,0,3,2,0,1,1,2,0,1,2,0,1,2,0,1,2,0,3,1,3,2,0,1,3,3,2,0,1,2,0,1,3,3,3,3,3,1,3,3,3,2,0,1,2,0,3,3,1,2,0,3,1,1,2,0,3,1,2,0,1,2,0,1,3,3,2,0,1,2,0,3,3,1,2,0,3,2,0,1,2,0,3,1,2,0,1,2,0,1,2,0,1,2,0,1,2,0,1,3,2,0,1,2,0,3,3,2,0,1,3,3,1,2,0,3,3,1,3,3,3,2,0]","40","280","8","null","","<div class=""feedback-message""></div><div class=""stimulus-container""><div class=""position-wrapper""><div class=""key-label"">D</div><div class=""position-box "" data-position=""0""></div></div><div class=""position-wrapper""><div class=""key-label"">F</div><div class=""position-box "" data-position=""1""></div></div><div class=""position-wrapper""><div class=""key-label"">J</div><div class=""position-box "" data-position=""2""></div></div><div class=""position-wrapper""><div class=""key-label"">K</div><div class=""position-box "" data-position=""3""></div></div></div><div class=""finger-diagram-container"">
			<img src=""assets/finger-diagrams/finger-diagram-4pos.png"" alt=""Finger position guide"" class=""finger-diagram"" />
		</div>","null","","","","","","","",""
"","","","","","practice","practice_end","html-button-response","27","114572","0.0-11.0","P_2efef0f6cee120371577824551b30a495b52d5902f33d1bb1a31631d7ff36b72","6975d475053a04ec2a824d54","6975d5638f99b4a10d842154","4","[[0.02736968909322194,0.5858593039421993,0,0.3867710069645787],[0,0.060260165899335215,0.701326755417172,0.23841307868349276],[0.9726301708741357,0.0000023008162070389276,0,0.027367528309657305],[0,0.35387827489883494,0.2986732967287947,0.3474484283723703]]","[1.1240499164293296,1.0963305126500609,0.18105958573962463,1.5809472755632945]","[2,0,3,3,2,0,3,2,0,1,2,0,1,2,0,3,1,2,0,0,1,2,0,3,1,1,3,3,3,2,0,3,2,0,3,2,0,1,2,0,1,3,1,2,0,3,1,3,1,1,2,0,3,1,2,0,0,1,2,0,1,2,0,1,2,0,1,2,0,3,1,1,2,0,3,3,3,3,3,1,3,2,0,1,2,0,3,3,1,2,0,1,2,0,1,2,0,1,2,0,1,2,0,1,3,2,0,1,3,1,2,0,1,2,0,3,1,2,0,3,1,2,0,3,2,0,3,3,1,2,0,1,3,1,1,2,0,1,3,2,0,3,1,3,1,3,3,2,0,1,3,1,3,1,2,0,1,2,0,3,2,0,1,1,2,0,1,2,0,1,2,0,1,2,0,3,1,3,2,0,1,3,3,2,0,1,2,0,1,3,3,3,3,3,1,3,3,3,2,0,1,2,0,3,3,1,2,0,3,1,1,2,0,3,1,2,0,1,2,0,1,3,3,2,0,1,2,0,3,3,1,2,0,3,2,0,1,2,0,3,1,2,0,1,2,0,1,2,0,1,2,0,1,2,0,1,3,2,0,1,2,0,3,3,2,0,1,3,3,1,2,0,3,3,1,3,3,3,2,0]","40","280","8","16687","","
                <div class=""instruction-text"">
                    <h2>Practice Complete!</h2>
                    <p>You got 8 out of 8 trials correct.</p>
                    <p>Remember: Respond as quickly and accurately as possible.</p>
					<p>Now, you will complete 7 blocks of 40 trials.</p>
                    <p>Between blocks, you will get a break to rest.</p>
                    <p>The entire task takes about 7 minutes.</p>
                    <p><strong>The main task will now begin.</strong></p>
                </div>
            ","0","","","","","","","",""
"","","","","","main","stimulus","html-keyboard-response","28","115660","0.0-12.0-0.0-0.0","P_2efef0f6cee120371577824551b30a495b52d5902f33d1bb1a31631d7ff36b72","6975d475053a04ec2a824d54","6975d5638f99b4a10d842154","4","[[0.02736968909322194,0.5858593039421993,0,0.3867710069645787],[0,0.060260165899335215,0.701326755417172,0.23841307868349276],[0.9726301708741357,0.0000023008162070389276,0,0.027367528309657305],[0,0.35387827489883494,0.2986732967287947,0.3474484283723703]]","[1.1240499164293296,1.0963305126500609,0.18105958573962463,1.5809472755632945]","[2,0,3,3,2,0,3,2,0,1,2,0,1,2,0,3,1,2,0,0,1,2,0,3,1,1,3,3,3,2,0,3,2,0,3,2,0,1,2,0,1,3,1,2,0,3,1,3,1,1,2,0,3,1,2,0,0,1,2,0,1,2,0,1,2,0,1,2,0,3,1,1,2,0,3,3,3,3,3,1,3,2,0,1,2,0,3,3,1,2,0,1,2,0,1,2,0,1,2,0,1,2,0,1,3,2,0,1,3,1,2,0,1,2,0,3,1,2,0,3,1,2,0,3,2,0,3,3,1,2,0,1,3,1,1,2,0,1,3,2,0,3,1,3,1,3,3,2,0,1,3,1,3,1,2,0,1,2,0,3,2,0,1,1,2,0,1,2,0,1,2,0,1,2,0,3,1,3,2,0,1,3,3,2,0,1,2,0,1,3,3,3,3,3,1,3,3,3,2,0,1,2,0,3,3,1,2,0,3,1,1,2,0,3,1,2,0,1,2,0,1,3,3,2,0,1,2,0,3,3,1,2,0,3,2,0,1,2,0,3,1,2,0,1,2,0,1,2,0,1,2,0,1,2,0,1,3,2,0,1,2,0,3,3,2,0,1,3,3,1,2,0,3,3,1,3,3,3,2,0]","40","280","8","1087","","<div class=""feedback-message""></div><div class=""stimulus-container""><div class=""position-wrapper""><div class=""position-box "" data-position=""0""></div></div><div class=""position-wrapper""><div class=""position-box "" data-position=""1""></div></div><div class=""position-wrapper""><div class=""position-box active"" data-position=""2""></div></div><div class=""position-wrapper""><div class=""position-box "" data-position=""3""></div></div></div><div class=""finger-diagram-container"">
			<img src=""assets/finger-diagrams/finger-diagram-4pos.png"" alt=""Finger position guide"" class=""finger-diagram"" />
		</div>","j","2","j","true","0","0","0","",""
"","","","","","main","feedback","html-keyboard-response","29","115862","0.0-12.0-0.0-1.0","P_2efef0f6cee120371577824551b30a495b52d5902f33d1bb1a31631d7ff36b72","6975d475053a04ec2a824d54","6975d5638f99b4a10d842154","4","[[0.02736968909322194,0.5858593039421993,0,0.3867710069645787],[0,0.060260165899335215,0.701326755417172,0.23841307868349276],[0.9726301708741357,0.0000023008162070389276,0,0.027367528309657305],[0,0.35387827489883494,0.2986732967287947,0.3474484283723703]]","[1.1240499164293296,1.0963305126500609,0.18105958573962463,1.5809472755632945]","[2,0,3,3,2,0,3,2,0,1,2,0,1,2,0,3,1,2,0,0,1,2,0,3,1,1,3,3,3,2,0,3,2,0,3,2,0,1,2,0,1,3,1,2,0,3,1,3,1,1,2,0,3,1,2,0,0,1,2,0,1,2,0,1,2,0,1,2,0,3,1,1,2,0,3,3,3,3,3,1,3,2,0,1,2,0,3,3,1,2,0,1,2,0,1,2,0,1,2,0,1,2,0,1,3,2,0,1,3,1,2,0,1,2,0,3,1,2,0,3,1,2,0,3,2,0,3,3,1,2,0,1,3,1,1,2,0,1,3,2,0,3,1,3,1,3,3,2,0,1,3,1,3,1,2,0,1,2,0,3,2,0,1,1,2,0,1,2,0,1,2,0,1,2,0,3,1,3,2,0,1,3,3,2,0,1,2,0,1,3,3,3,3,3,1,3,3,3,2,0,1,2,0,3,3,1,2,0,3,1,1,2,0,3,1,2,0,1,2,0,1,3,3,2,0,1,2,0,3,3,1,2,0,3,2,0,1,2,0,3,1,2,0,1,2,0,1,2,0,1,2,0,1,2,0,1,3,2,0,1,2,0,3,3,2,0,1,3,3,1,2,0,3,3,1,3,3,3,2,0]","40","280","8","null","","<div class=""feedback-message""><div class=""feedback-correct"">✓</div></div><div class=""stimulus-container""><div class=""position-wrapper""><div class=""position-box "" data-position=""0""></div></div><div class=""position-wrapper""><div class=""position-box "" data-position=""1""></div></div><div class=""position-wrapper""><div class=""position-box active"" data-position=""2""></div></div><div class=""position-wrapper""><div class=""position-box "" data-position=""3""></div></div></div><div class=""finger-diagram-container"">
			<img src=""assets/finger-diagrams/finger-diagram-4pos.png"" alt=""Finger position guide"" class=""finger-diagram"" />
		</div>","null","","","","","","","",""
"","","","","","main","rsi","html-keyboard-response","30","115987","0.0-12.0-1.0","P_2efef0f6cee120371577824551b30a495b52d5902f33d1bb1a31631d7ff36b72","6975d475053a04ec2a824d54","6975d5638f99b4a10d842154","4","[[0.02736968909322194,0.5858593039421993,0,0.3867710069645787],[0,0.060260165899335215,0.701326755417172,0.23841307868349276],[0.9726301708741357,0.0000023008162070389276,0,0.027367528309657305],[0,0.35387827489883494,0.2986732967287947,0.3474484283723703]]","[1.1240499164293296,1.0963305126500609,0.18105958573962463,1.5809472755632945]","[2,0,3,3,2,0,3,2,0,1,2,0,1,2,0,3,1,2,0,0,1,2,0,3,1,1,3,3,3,2,0,3,2,0,3,2,0,1,2,0,1,3,1,2,0,3,1,3,1,1,2,0,3,1,2,0,0,1,2,0,1,2,0,1,2,0,1,2,0,3,1,1,2,0,3,3,3,3,3,1,3,2,0,1,2,0,3,3,1,2,0,1,2,0,1,2,0,1,2,0,1,2,0,1,3,2,0,1,3,1,2,0,1,2,0,3,1,2,0,3,1,2,0,3,2,0,3,3,1,2,0,1,3,1,1,2,0,1,3,2,0,3,1,3,1,3,3,2,0,1,3,1,3,1,2,0,1,2,0,3,2,0,1,1,2,0,1,2,0,1,2,0,1,2,0,3,1,3,2,0,1,3,3,2,0,1,2,0,1,3,3,3,3,3,1,3,3,3,2,0,1,2,0,3,3,1,2,0,3,1,1,2,0,3,1,2,0,1,2,0,1,3,3,2,0,1,2,0,3,3,1,2,0,3,2,0,1,2,0,3,1,2,0,1,2,0,1,2,0,1,2,0,1,2,0,1,3,2,0,1,2,0,3,3,2,0,1,3,3,1,2,0,3,3,1,3,3,3,2,0]","40","280","8","null","","<div class=""feedback-message""></div><div class=""stimulus-container""><div class=""position-wrapper""><div class=""position-box "" data-position=""0""></div></div><div class=""position-wrapper""><div class=""position-box "" data-position=""1""></div></div><div class=""position-wrapper""><div class=""position-box "" data-position=""2""></div></div><div class=""position-wrapper""><div class=""position-box "" data-position=""3""></div></div></div><div class=""finger-diagram-container"">
			<img src=""assets/finger-diagrams/finger-diagram-4pos.png"" alt=""Finger position guide"" class=""finger-diagram"" />
		</div>","null","","","","","","","",""
"","","","","","main","stimulus","html-keyboard-response","31","116500","0.0-13.0-0.0-0.0","P_2efef0f6cee120371577824551b30a495b52d5902f33d1bb1a31631d7ff36b72","6975d475053a04ec2a824d54","6975d5638f99b4a10d842154","4","[[0.02736968909322194,0.5858593039421993,0,0.3867710069645787],[0,0.060260165899335215,0.701326755417172,0.23841307868349276],[0.9726301708741357,0.0000023008162070389276,0,0.027367528309657305],[0,0.35387827489883494,0.2986732967287947,0.3474484283723703]]","[1.1240499164293296,1.0963305126500609,0.18105958573962463,1.5809472755632945]","[2,0,3,3,2,0,3,2,0,1,2,0,1,2,0,3,1,2,0,0,1,2,0,3,1,1,3,3,3,2,0,3,2,0,3,2,0,1,2,0,1,3,1,2,0,3,1,3,1,1,2,0,3,1,2,0,0,1,2,0,1,2,0,1,2,0,1,2,0,3,1,1,2,0,3,3,3,3,3,1,3,2,0,1,2,0,3,3,1,2,0,1,2,0,1,2,0,1,2,0,1,2,0,1,3,2,0,1,3,1,2,0,1,2,0,3,1,2,0,3,1,2,0,3,2,0,3,3,1,2,0,1,3,1,1,2,0,1,3,2,0,3,1,3,1,3,3,2,0,1,3,1,3,1,2,0,1,2,0,3,2,0,1,1,2,0,1,2,0,1,2,0,1,2,0,3,1,3,2,0,1,3,3,2,0,1,2,0,1,3,3,3,3,3,1,3,3,3,2,0,1,2,0,3,3,1,2,0,3,1,1,2,0,3,1,2,0,1,2,0,1,3,3,2,0,1,2,0,3,3,1,2,0,3,2,0,1,2,0,3,1,2,0,1,2,0,1,2,0,1,2,0,1,2,0,1,3,2,0,1,2,0,3,3,2,0,1,3,3,1,2,0,3,3,1,3,3,3,2,0]","40","280","8","513","","<div class=""feedback-message""></div><div class=""stimulus-container""><div class=""position-wrapper""><div class=""position-box active"" data-position=""0""></div></div><div class=""position-wrapper""><div class=""position-box "" data-position=""1""></div></div><div class=""position-wrapper""><div class=""position-box "" data-position=""2""></div></div><div class=""position-wrapper""><div class=""position-box "" data-position=""3""></div></div></div><div class=""finger-diagram-container"">
			<img src=""assets/finger-diagrams/finger-diagram-4pos.png"" alt=""Finger position guide"" class=""finger-diagram"" />
		</div>","d","0","d","true","0","1","1","",""
"","","","","","main","feedback","html-keyboard-response","32","116702","0.0-13.0-0.0-1.0","P_2efef0f6cee120371577824551b30a495b52d5902f33d1bb1a31631d7ff36b72","6975d475053a04ec2a824d54","6975d5638f99b4a10d842154","4","[[0.02736968909322194,0.5858593039421993,0,0.3867710069645787],[0,0.060260165899335215,0.701326755417172,0.23841307868349276],[0.9726301708741357,0.0000023008162070389276,0,0.027367528309657305],[0,0.35387827489883494,0.2986732967287947,0.3474484283723703]]","[1.1240499164293296,1.0963305126500609,0.18105958573962463,1.5809472755632945]","[2,0,3,3,2,0,3,2,0,1,2,0,1,2,0,3,1,2,0,0,1,2,0,3,1,1,3,3,3,2,0,3,2,0,3,2,0,1,2,0,1,3,1,2,0,3,1,3,1,1,2,0,3,1,2,0,0,1,2,0,1,2,0,1,2,0,1,2,0,3,1,1,2,0,3,3,3,3,3,1,3,2,0,1,2,0,3,3,1,2,0,1,2,0,1,2,0,1,2,0,1,2,0,1,3,2,0,1,3,1,2,0,1,2,0,3,1,2,0,3,1,2,0,3,2,0,3,3,1,2,0,1,3,1,1,2,0,1,3,2,0,3,1,3,1,3,3,2,0,1,3,1,3,1,2,0,1,2,0,3,2,0,1,1,2,0,1,2,0,1,2,0,1,2,0,3,1,3,2,0,1,3,3,2,0,1,2,0,1,3,3,3,3,3,1,3,3,3,2,0,1,2,0,3,3,1,2,0,3,1,1,2,0,3,1,2,0,1,2,0,1,3,3,2,0,1,2,0,3,3,1,2,0,3,2,0,1,2,0,3,1,2,0,1,2,0,1,2,0,1,2,0,1,2,0,1,3,2,0,1,2,0,3,3,2,0,1,3,3,1,2,0,3,3,1,3,3,3,2,0]","40","280","8","null","","<div class=""feedback-message""><div class=""feedback-correct"">✓</div></div><div class=""stimulus-container""><div class=""position-wrapper""><div class=""position-box active"" data-position=""0""></div></div><div class=""position-wrapper""><div class=""position-box "" data-position=""1""></div></div><div class=""position-wrapper""><div class=""position-box "" data-position=""2""></div></div><div class=""position-wrapper""><div class=""position-box "" data-position=""3""></div></div></div><div class=""finger-diagram-container"">
			<img src=""assets/finger-diagrams/finger-diagram-4pos.png"" alt=""Finger position guide"" class=""finger-diagram"" />
		</div>","null","","","","","","","",""
"","","","","","main","rsi","html-keyboard-response","33","116828","0.0-13.0-1.0","P_2efef0f6cee120371577824551b30a495b52d5902f33d1bb1a31631d7ff36b72","6975d475053a04ec2a824d54","6975d5638f99b4a10d842154","4","[[0.02736968909322194,0.5858593039421993,0,0.3867710069645787],[0,0.060260165899335215,0.701326755417172,0.23841307868349276],[0.9726301708741357,0.0000023008162070389276,0,0.027367528309657305],[0,0.35387827489883494,0.2986732967287947,0.3474484283723703]]","[1.1240499164293296,1.0963305126500609,0.18105958573962463,1.5809472755632945]","[2,0,3,3,2,0,3,2,0,1,2,0,1,2,0,3,1,2,0,0,1,2,0,3,1,1,3,3,3,2,0,3,2,0,3,2,0,1,2,0,1,3,1,2,0,3,1,3,1,1,2,0,3,1,2,0,0,1,2,0,1,2,0,1,2,0,1,2,0,3,1,1,2,0,3,3,3,3,3,1,3,2,0,1,2,0,3,3,1,2,0,1,2,0,1,2,0,1,2,0,1,2,0,1,3,2,0,1,3,1,2,0,1,2,0,3,1,2,0,3,1,2,0,3,2,0,3,3,1,2,0,1,3,1,1,2,0,1,3,2,0,3,1,3,1,3,3,2,0,1,3,1,3,1,2,0,1,2,0,3,2,0,1,1,2,0,1,2,0,1,2,0,1,2,0,3,1,3,2,0,1,3,3,2,0,1,2,0,1,3,3,3,3,3,1,3,3,3,2,0,1,2,0,3,3,1,2,0,3,1,1,2,0,3,1,2,0,1,2,0,1,3,3,2,0,1,2,0,3,3,1,2,0,3,2,0,1,2,0,3,1,2,0,1,2,0,1,2,0,1,2,0,1,2,0,1,3,2,0,1,2,0,3,3,2,0,1,3,3,1,2,0,3,3,1,3,3,3,2,0]","40","280","8","null","","<div class=""feedback-message""></div><div class=""stimulus-container""><div class=""position-wrapper""><div class=""position-box "" data-position=""0""></div></div><div class=""position-wrapper""><div class=""position-box "" data-position=""1""></div></div><div class=""position-wrapper""><div class=""position-box "" data-position=""2""></div></div><div class=""position-wrapper""><div class=""position-box "" data-position=""3""></div></div></div><div class=""finger-diagram-container"">
			<img src=""assets/finger-diagrams/finger-diagram-4pos.png"" alt=""Finger position guide"" class=""finger-diagram"" />
		</div>","null","","","","","","","",""
"","","","","","main","stimulus","html-keyboard-response","34","117308","0.0-14.0-0.0-0.0","P_2efef0f6cee120371577824551b30a495b52d5902f33d1bb1a31631d7ff36b72","6975d475053a04ec2a824d54","6975d5638f99b4a10d842154","4","[[0.02736968909322194,0.5858593039421993,0,0.3867710069645787],[0,0.060260165899335215,0.701326755417172,0.23841307868349276],[0.9726301708741357,0.0000023008162070389276,0,0.027367528309657305],[0,0.35387827489883494,0.2986732967287947,0.3474484283723703]]","[1.1240499164293296,1.0963305126500609,0.18105958573962463,1.5809472755632945]","[2,0,3,3,2,0,3,2,0,1,2,0,1,2,0,3,1,2,0,0,1,2,0,3,1,1,3,3,3,2,0,3,2,0,3,2,0,1,2,0,1,3,1,2,0,3,1,3,1,1,2,0,3,1,2,0,0,1,2,0,1,2,0,1,2,0,1,2,0,3,1,1,2,0,3,3,3,3,3,1,3,2,0,1,2,0,3,3,1,2,0,1,2,0,1,2,0,1,2,0,1,2,0,1,3,2,0,1,3,1,2,0,1,2,0,3,1,2,0,3,1,2,0,3,2,0,3,3,1,2,0,1,3,1,1,2,0,1,3,2,0,3,1,3,1,3,3,2,0,1,3,1,3,1,2,0,1,2,0,3,2,0,1,1,2,0,1,2,0,1,2,0,1,2,0,3,1,3,2,0,1,3,3,2,0,1,2,0,1,3,3,3,3,3,1,3,3,3,2,0,1,2,0,3,3,1,2,0,3,1,1,2,0,3,1,2,0,1,2,0,1,3,3,2,0,1,2,0,3,3,1,2,0,3,2,0,1,2,0,3,1,2,0,1,2,0,1,2,0,1,2,0,1,2,0,1,3,2,0,1,2,0,3,3,2,0,1,3,3,1,2,0,3,3,1,3,3,3,2,0]","40","280","8","479","","<div class=""feedback-message""></div><div class=""stimulus-container""><div class=""position-wrapper""><div class=""position-box "" data-position=""0""></div></div><div class=""position-wrapper""><div class=""position-box "" data-position=""1""></div></div><div class=""position-wrapper""><div class=""position-box "" data-position=""2""></div></div><div class=""position-wrapper""><div class=""position-box active"" data-position=""3""></div></div></div><div class=""finger-diagram-container"">
			<img src=""assets/finger-diagrams/finger-diagram-4pos.png"" alt=""Finger position guide"" class=""finger-diagram"" />
		</div>","k","3","k","true","0","2","2","",""
"","","","","","main","feedback","html-keyboard-response","35","117510","0.0-14.0-0.0-1.0","P_2efef0f6cee120371577824551b30a495b52d5902f33d1bb1a31631d7ff36b72","6975d475053a04ec2a824d54","6975d5638f99b4a10d842154","4","[[0.02736968909322194,0.5858593039421993,0,0.3867710069645787],[0,0.060260165899335215,0.701326755417172,0.23841307868349276],[0.9726301708741357,0.0000023008162070389276,0,0.027367528309657305],[0,0.35387827489883494,0.2986732967287947,0.3474484283723703]]","[1.1240499164293296,1.0963305126500609,0.18105958573962463,1.5809472755632945]","[2,0,3,3,2,0,3,2,0,1,2,0,1,2,0,3,1,2,0,0,1,2,0,3,1,1,3,3,3,2,0,3,2,0,3,2,0,1,2,0,1,3,1,2,0,3,1,3,1,1,2,0,3,1,2,0,0,1,2,0,1,2,0,1,2,0,1,2,0,3,1,1,2,0,3,3,3,3,3,1,3,2,0,1,2,0,3,3,1,2,0,1,2,0,1,2,0,1,2,0,1,2,0,1,3,2,0,1,3,1,2,0,1,2,0,3,1,2,0,3,1,2,0,3,2,0,3,3,1,2,0,1,3,1,1,2,0,1,3,2,0,3,1,3,1,3,3,2,0,1,3,1,3,1,2,0,1,2,0,3,2,0,1,1,2,0,1,2,0,1,2,0,1,2,0,3,1,3,2,0,1,3,3,2,0,1,2,0,1,3,3,3,3,3,1,3,3,3,2,0,1,2,0,3,3,1,2,0,3,1,1,2,0,3,1,2,0,1,2,0,1,3,3,2,0,1,2,0,3,3,1,2,0,3,2,0,1,2,0,3,1,2,0,1,2,0,1,2,0,1,2,0,1,2,0,1,3,2,0,1,2,0,3,3,2,0,1,3,3,1,2,0,3,3,1,3,3,3,2,0]","40","280","8","null","","<div class=""feedback-message""><div class=""feedback-correct"">✓</div></div><div class=""stimulus-container""><div class=""position-wrapper""><div class=""position-box "" data-position=""0""></div></div><div class=""position-wrapper""><div class=""position-box "" data-position=""1""></div></div><div class=""position-wrapper""><div class=""position-box "" data-position=""2""></div></div><div class=""position-wrapper""><div class=""position-box active"" data-position=""3""></div></div></div><div class=""finger-diagram-container"">
			<img src=""assets/finger-diagrams/finger-diagram-4pos.png"" alt=""Finger position guide"" class=""finger-diagram"" />
		</div>","null","","","","","","","",""
"","","","","","main","rsi","html-keyboard-response","36","117637","0.0-14.0-1.0","P_2efef0f6cee120371577824551b30a495b52d5902f33d1bb1a31631d7ff36b72","6975d475053a04ec2a824d54","6975d5638f99b4a10d842154","4","[[0.02736968909322194,0.5858593039421993,0,0.3867710069645787],[0,0.060260165899335215,0.701326755417172,0.23841307868349276],[0.9726301708741357,0.0000023008162070389276,0,0.027367528309657305],[0,0.35387827489883494,0.2986732967287947,0.3474484283723703]]","[1.1240499164293296,1.0963305126500609,0.18105958573962463,1.5809472755632945]","[2,0,3,3,2,0,3,2,0,1,2,0,1,2,0,3,1,2,0,0,1,2,0,3,1,1,3,3,3,2,0,3,2,0,3,2,0,1,2,0,1,3,1,2,0,3,1,3,1,1,2,0,3,1,2,0,0,1,2,0,1,2,0,1,2,0,1,2,0,3,1,1,2,0,3,3,3,3,3,1,3,2,0,1,2,0,3,3,1,2,0,1,2,0,1,2,0,1,2,0,1,2,0,1,3,2,0,1,3,1,2,0,1,2,0,3,1,2,0,3,1,2,0,3,2,0,3,3,1,2,0,1,3,1,1,2,0,1,3,2,0,3,1,3,1,3,3,2,0,1,3,1,3,1,2,0,1,2,0,3,2,0,1,1,2,0,1,2,0,1,2,0,1,2,0,3,1,3,2,0,1,3,3,2,0,1,2,0,1,3,3,3,3,3,1,3,3,3,2,0,1,2,0,3,3,1,2,0,3,1,1,2,0,3,1,2,0,1,2,0,1,3,3,2,0,1,2,0,3,3,1,2,0,3,2,0,1,2,0,3,1,2,0,1,2,0,1,2,0,1,2,0,1,2,0,1,3,2,0,1,2,0,3,3,2,0,1,3,3,1,2,0,3,3,1,3,3,3,2,0]","40","280","8","null","","<div class=""feedback-message""></div><div class=""stimulus-container""><div class=""position-wrapper""><div class=""position-box "" data-position=""0""></div></div><div class=""position-wrapper""><div class=""position-box "" data-position=""1""></div></div><div class=""position-wrapper""><div class=""position-box "" data-position=""2""></div></div><div class=""position-wrapper""><div class=""position-box "" data-position=""3""></div></div></div><div class=""finger-diagram-container"">
			<img src=""assets/finger-diagrams/finger-diagram-4pos.png"" alt=""Finger position guide"" class=""finger-diagram"" />
		</div>","null","","","","","","","",""
"","","","","","main","stimulus","html-keyboard-response","37","118052","0.0-15.0-0.0-0.0","P_2efef0f6cee120371577824551b30a495b52d5902f33d1bb1a31631d7ff36b72","6975d475053a04ec2a824d54","6975d5638f99b4a10d842154","4","[[0.02736968909322194,0.5858593039421993,0,0.3867710069645787],[0,0.060260165899335215,0.701326755417172,0.23841307868349276],[0.9726301708741357,0.0000023008162070389276,0,0.027367528309657305],[0,0.35387827489883494,0.2986732967287947,0.3474484283723703]]","[1.1240499164293296,1.0963305126500609,0.18105958573962463,1.5809472755632945]","[2,0,3,3,2,0,3,2,0,1,2,0,1,2,0,3,1,2,0,0,1,2,0,3,1,1,3,3,3,2,0,3,2,0,3,2,0,1,2,0,1,3,1,2,0,3,1,3,1,1,2,0,3,1,2,0,0,1,2,0,1,2,0,1,2,0,1,2,0,3,1,1,2,0,3,3,3,3,3,1,3,2,0,1,2,0,3,3,1,2,0,1,2,0,1,2,0,1,2,0,1,2,0,1,3,2,0,1,3,1,2,0,1,2,0,3,1,2,0,3,1,2,0,3,2,0,3,3,1,2,0,1,3,1,1,2,0,1,3,2,0,3,1,3,1,3,3,2,0,1,3,1,3,1,2,0,1,2,0,3,2,0,1,1,2,0,1,2,0,1,2,0,1,2,0,3,1,3,2,0,1,3,3,2,0,1,2,0,1,3,3,3,3,3,1,3,3,3,2,0,1,2,0,3,3,1,2,0,3,1,1,2,0,3,1,2,0,1,2,0,1,3,3,2,0,1,2,0,3,3,1,2,0,3,2,0,1,2,0,3,1,2,0,1,2,0,1,2,0,1,2,0,1,2,0,1,3,2,0,1,2,0,3,3,2,0,1,3,3,1,2,0,3,3,1,3,3,3,2,0]","40","280","8","414","","<div class=""feedback-message""></div><div class=""stimulus-container""><div class=""position-wrapper""><div class=""position-box "" data-position=""0""></div></div><div class=""position-wrapper""><div class=""position-box "" data-position=""1""></div></div><div class=""position-wrapper""><div class=""position-box "" data-position=""2""></div></div><div class=""position-wrapper""><div class=""position-box active"" data-position=""3""></div></div></div><div class=""finger-diagram-container"">
			<img src=""assets/finger-diagrams/finger-diagram-4pos.png"" alt=""Finger position guide"" class=""finger-diagram"" />
		</div>","k","3","k","true","0","3","3","",""
"","","","","","main","feedback","html-keyboard-response","38","118260","0.0-15.0-0.0-1.0","P_2efef0f6cee120371577824551b30a495b52d5902f33d1bb1a31631d7ff36b72","6975d475053a04ec2a824d54","6975d5638f99b4a10d842154","4","[[0.02736968909322194,0.5858593039421993,0,0.3867710069645787],[0,0.060260165899335215,0.701326755417172,0.23841307868349276],[0.9726301708741357,0.0000023008162070389276,0,0.027367528309657305],[0,0.35387827489883494,0.2986732967287947,0.3474484283723703]]","[1.1240499164293296,1.0963305126500609,0.18105958573962463,1.5809472755632945]","[2,0,3,3,2,0,3,2,0,1,2,0,1,2,0,3,1,2,0,0,1,2,0,3,1,1,3,3,3,2,0,3,2,0,3,2,0,1,2,0,1,3,1,2,0,3,1,3,1,1,2,0,3,1,2,0,0,1,2,0,1,2,0,1,2,0,1,2,0,3,1,1,2,0,3,3,3,3,3,1,3,2,0,1,2,0,3,3,1,2,0,1,2,0,1,2,0,1,2,0,1,2,0,1,3,2,0,1,3,1,2,0,1,2,0,3,1,2,0,3,1,2,0,3,2,0,3,3,1,2,0,1,3,1,1,2,0,1,3,2,0,3,1,3,1,3,3,2,0,1,3,1,3,1,2,0,1,2,0,3,2,0,1,1,2,0,1,2,0,1,2,0,1,2,0,3,1,3,2,0,1,3,3,2,0,1,2,0,1,3,3,3,3,3,1,3,3,3,2,0,1,2,0,3,3,1,2,0,3,1,1,2,0,3,1,2,0,1,2,0,1,3,3,2,0,1,2,0,3,3,1,2,0,3,2,0,1,2,0,3,1,2,0,1,2,0,1,2,0,1,2,0,1,2,0,1,3,2,0,1,2,0,3,3,2,0,1,3,3,1,2,0,3,3,1,3,3,3,2,0]","40","280","8","null","","<div class=""feedback-message""><div class=""feedback-correct"">✓</div></div><div class=""stimulus-container""><div class=""position-wrapper""><div class=""position-box "" data-position=""0""></div></div><div class=""position-wrapper""><div class=""position-box "" data-position=""1""></div></div><div class=""position-wrapper""><div class=""position-box "" data-position=""2""></div></div><div class=""position-wrapper""><div class=""position-box active"" data-position=""3""></div></div></div><div class=""finger-diagram-container"">
			<img src=""assets/finger-diagrams/finger-diagram-4pos.png"" alt=""Finger position guide"" class=""finger-diagram"" />
		</div>","null","","","","","","","",""
"","","","","","main","rsi","html-keyboard-response","39","118387","0.0-15.0-1.0","P_2efef0f6cee120371577824551b30a495b52d5902f33d1bb1a31631d7ff36b72","6975d475053a04ec2a824d54","6975d5638f99b4a10d842154","4","[[0.02736968909322194,0.5858593039421993,0,0.3867710069645787],[0,0.060260165899335215,0.701326755417172,0.23841307868349276],[0.9726301708741357,0.0000023008162070389276,0,0.027367528309657305],[0,0.35387827489883494,0.2986732967287947,0.3474484283723703]]","[1.1240499164293296,1.0963305126500609,0.18105958573962463,1.5809472755632945]","[2,0,3,3,2,0,3,2,0,1,2,0,1,2,0,3,1,2,0,0,1,2,0,3,1,1,3,3,3,2,0,3,2,0,3,2,0,1,2,0,1,3,1,2,0,3,1,3,1,1,2,0,3,1,2,0,0,1,2,0,1,2,0,1,2,0,1,2,0,3,1,1,2,0,3,3,3,3,3,1,3,2,0,1,2,0,3,3,1,2,0,1,2,0,1,2,0,1,2,0,1,2,0,1,3,2,0,1,3,1,2,0,1,2,0,3,1,2,0,3,1,2,0,3,2,0,3,3,1,2,0,1,3,1,1,2,0,1,3,2,0,3,1,3,1,3,3,2,0,1,3,1,3,1,2,0,1,2,0,3,2,0,1,1,2,0,1,2,0,1,2,0,1,2,0,3,1,3,2,0,1,3,3,2,0,1,2,0,1,3,3,3,3,3,1,3,3,3,2,0,1,2,0,3,3,1,2,0,3,1,1,2,0,3,1,2,0,1,2,0,1,3,3,2,0,1,2,0,3,3,1,2,0,3,2,0,1,2,0,3,1,2,0,1,2,0,1,2,0,1,2,0,1,2,0,1,3,2,0,1,2,0,3,3,2,0,1,3,3,1,2,0,3,3,1,3,3,3,2,0]","40","280","8","null","","<div class=""feedback-message""></div><div class=""stimulus-container""><div class=""position-wrapper""><div class=""position-box "" data-position=""0""></div></div><div class=""position-wrapper""><div class=""position-box "" data-position=""1""></div></div><div class=""position-wrapper""><div class=""position-box "" data-position=""2""></div></div><div class=""position-wrapper""><div class=""position-box "" data-position=""3""></div></div></div><div class=""finger-diagram-container"">
			<img src=""assets/finger-diagrams/finger-diagram-4pos.png"" alt=""Finger position guide"" class=""finger-diagram"" />
		</div>","null","","","","","","","",""
"","","","","","main","stimulus","html-keyboard-response","40","118916","0.0-16.0-0.0-0.0","P_2efef0f6cee120371577824551b30a495b52d5902f33d1bb1a31631d7ff36b72","6975d475053a04ec2a824d54","6975d5638f99b4a10d842154","4","[[0.02736968909322194,0.5858593039421993,0,0.3867710069645787],[0,0.060260165899335215,0.701326755417172,0.23841307868349276],[0.9726301708741357,0.0000023008162070389276,0,0.027367528309657305],[0,0.35387827489883494,0.2986732967287947,0.3474484283723703]]","[1.1240499164293296,1.0963305126500609,0.18105958573962463,1.5809472755632945]","[2,0,3,3,2,0,3,2,0,1,2,0,1,2,0,3,1,2,0,0,1,2,0,3,1,1,3,3,3,2,0,3,2,0,3,2,0,1,2,0,1,3,1,2,0,3,1,3,1,1,2,0,3,1,2,0,0,1,2,0,1,2,0,1,2,0,1,2,0,3,1,1,2,0,3,3,3,3,3,1,3,2,0,1,2,0,3,3,1,2,0,1,2,0,1,2,0,1,2,0,1,2,0,1,3,2,0,1,3,1,2,0,1,2,0,3,1,2,0,3,1,2,0,3,2,0,3,3,1,2,0,1,3,1,1,2,0,1,3,2,0,3,1,3,1,3,3,2,0,1,3,1,3,1,2,0,1,2,0,3,2,0,1,1,2,0,1,2,0,1,2,0,1,2,0,3,1,3,2,0,1,3,3,2,0,1,2,0,1,3,3,3,3,3,1,3,3,3,2,0,1,2,0,3,3,1,2,0,3,1,1,2,0,3,1,2,0,1,2,0,1,3,3,2,0,1,2,0,3,3,1,2,0,3,2,0,1,2,0,3,1,2,0,1,2,0,1,2,0,1,2,0,1,2,0,1,3,2,0,1,2,0,3,3,2,0,1,3,3,1,2,0,3,3,1,3,3,3,2,0]","40","280","8","529","","<div class=""feedback-message""></div><div class=""stimulus-container""><div class=""position-wrapper""><div class=""position-box "" data-position=""0""></div></div><div class=""position-wrapper""><div class=""position-box "" data-position=""1""></div></div><div class=""position-wrapper""><div class=""position-box active"" data-position=""2""></div></div><div class=""position-wrapper""><div class=""position-box "" data-position=""3""></div></div></div><div class=""finger-diagram-container"">
			<img src=""assets/finger-diagrams/finger-diagram-4pos.png"" alt=""Finger position guide"" class=""finger-diagram"" />
		</div>","j","2","j","true","0","4","4","",""
"","","","","","main","feedback","html-keyboard-response","41","119119","0.0-16.0-0.0-1.0","P_2efef0f6cee120371577824551b30a495b52d5902f33d1bb1a31631d7ff36b72","6975d475053a04ec2a824d54","6975d5638f99b4a10d842154","4","[[0.02736968909322194,0.5858593039421993,0,0.3867710069645787],[0,0.060260165899335215,0.701326755417172,0.23841307868349276],[0.9726301708741357,0.0000023008162070389276,0,0.027367528309657305],[0,0.35387827489883494,0.2986732967287947,0.3474484283723703]]","[1.1240499164293296,1.0963305126500609,0.18105958573962463,1.5809472755632945]","[2,0,3,3,2,0,3,2,0,1,2,0,1,2,0,3,1,2,0,0,1,2,0,3,1,1,3,3,3,2,0,3,2,0,3,2,0,1,2,0,1,3,1,2,0,3,1,3,1,1,2,0,3,1,2,0,0,1,2,0,1,2,0,1,2,0,1,2,0,3,1,1,2,0,3,3,3,3,3,1,3,2,0,1,2,0,3,3,1,2,0,1,2,0,1,2,0,1,2,0,1,2,0,1,3,2,0,1,3,1,2,0,1,2,0,3,1,2,0,3,1,2,0,3,2,0,3,3,1,2,0,1,3,1,1,2,0,1,3,2,0,3,1,3,1,3,3,2,0,1,3,1,3,1,2,0,1,2,0,3,2,0,1,1,2,0,1,2,0,1,2,0,1,2,0,3,1,3,2,0,1,3,3,2,0,1,2,0,1,3,3,3,3,3,1,3,3,3,2,0,1,2,0,3,3,1,2,0,3,1,1,2,0,3,1,2,0,1,2,0,1,3,3,2,0,1,2,0,3,3,1,2,0,3,2,0,1,2,0,3,1,2,0,1,2,0,1,2,0,1,2,0,1,2,0,1,3,2,0,1,2,0,3,3,2,0,1,3,3,1,2,0,3,3,1,3,3,3,2,0]","40","280","8","null","","<div class=""feedback-message""><div class=""feedback-correct"">✓</div></div><div class=""stimulus-container""><div class=""position-wrapper""><div class=""position-box "" data-position=""0""></div></div><div class=""position-wrapper""><div class=""position-box "" data-position=""1""></div></div><div class=""position-wrapper""><div class=""position-box active"" data-position=""2""></div></div><div class=""position-wrapper""><div class=""position-box "" data-position=""3""></div></div></div><div class=""finger-diagram-container"">
			<img src=""assets/finger-diagrams/finger-diagram-4pos.png"" alt=""Finger position guide"" class=""finger-diagram"" />
		</div>","null","","","","","","","",""
"","","","","","main","rsi","html-keyboard-response","42","119244","0.0-16.0-1.0","P_2efef0f6cee120371577824551b30a495b52d5902f33d1bb1a31631d7ff36b72","6975d475053a04ec2a824d54","6975d5638f99b4a10d842154","4","[[0.02736968909322194,0.5858593039421993,0,0.3867710069645787],[0,0.060260165899335215,0.701326755417172,0.23841307868349276],[0.9726301708741357,0.0000023008162070389276,0,0.027367528309657305],[0,0.35387827489883494,0.2986732967287947,0.3474484283723703]]","[1.1240499164293296,1.0963305126500609,0.18105958573962463,1.5809472755632945]","[2,0,3,3,2,0,3,2,0,1,2,0,1,2,0,3,1,2,0,0,1,2,0,3,1,1,3,3,3,2,0,3,2,0,3,2,0,1,2,0,1,3,1,2,0,3,1,3,1,1,2,0,3,1,2,0,0,1,2,0,1,2,0,1,2,0,1,2,0,3,1,1,2,0,3,3,3,3,3,1,3,2,0,1,2,0,3,3,1,2,0,1,2,0,1,2,0,1,2,0,1,2,0,1,3,2,0,1,3,1,2,0,1,2,0,3,1,2,0,3,1,2,0,3,2,0,3,3,1,2,0,1,3,1,1,2,0,1,3,2,0,3,1,3,1,3,3,2,0,1,3,1,3,1,2,0,1,2,0,3,2,0,1,1,2,0,1,2,0,1,2,0,1,2,0,3,1,3,2,0,1,3,3,2,0,1,2,0,1,3,3,3,3,3,1,3,3,3,2,0,1,2,0,3,3,1,2,0,3,1,1,2,0,3,1,2,0,1,2,0,1,3,3,2,0,1,2,0,3,3,1,2,0,3,2,0,1,2,0,3,1,2,0,1,2,0,1,2,0,1,2,0,1,2,0,1,3,2,0,1,2,0,3,3,2,0,1,3,3,1,2,0,3,3,1,3,3,3,2,0]","40","280","8","null","","<div class=""feedback-message""></div><div class=""stimulus-container""><div class=""position-wrapper""><div class=""position-box "" data-position=""0""></div></div><div class=""position-wrapper""><div class=""position-box "" data-position=""1""></div></div><div class=""position-wrapper""><div class=""position-box "" data-position=""2""></div></div><div class=""position-wrapper""><div class=""position-box "" data-position=""3""></div></div></div><div class=""finger-diagram-container"">
			<img src=""assets/finger-diagrams/finger-diagram-4pos.png"" alt=""Finger position guide"" class=""finger-diagram"" />
		</div>","null","","","","","","","",""
"","","","","","main","stimulus","html-keyboard-response","43","119667","0.0-17.0-0.0-0.0","P_2efef0f6cee120371577824551b30a495b52d5902f33d1bb1a31631d7ff36b72","6975d475053a04ec2a824d54","6975d5638f99b4a10d842154","4","[[0.02736968909322194,0.5858593039421993,0,0.3867710069645787],[0,0.060260165899335215,0.701326755417172,0.23841307868349276],[0.9726301708741357,0.0000023008162070389276,0,0.027367528309657305],[0,0.35387827489883494,0.2986732967287947,0.3474484283723703]]","[1.1240499164293296,1.0963305126500609,0.18105958573962463,1.5809472755632945]","[2,0,3,3,2,0,3,2,0,1,2,0,1,2,0,3,1,2,0,0,1,2,0,3,1,1,3,3,3,2,0,3,2,0,3,2,0,1,2,0,1,3,1,2,0,3,1,3,1,1,2,0,3,1,2,0,0,1,2,0,1,2,0,1,2,0,1,2,0,3,1,1,2,0,3,3,3,3,3,1,3,2,0,1,2,0,3,3,1,2,0,1,2,0,1,2,0,1,2,0,1,2,0,1,3,2,0,1,3,1,2,0,1,2,0,3,1,2,0,3,1,2,0,3,2,0,3,3,1,2,0,1,3,1,1,2,0,1,3,2,0,3,1,3,1,3,3,2,0,1,3,1,3,1,2,0,1,2,0,3,2,0,1,1,2,0,1,2,0,1,2,0,1,2,0,3,1,3,2,0,1,3,3,2,0,1,2,0,1,3,3,3,3,3,1,3,3,3,2,0,1,2,0,3,3,1,2,0,3,1,1,2,0,3,1,2,0,1,2,0,1,3,3,2,0,1,2,0,3,3,1,2,0,3,2,0,1,2,0,3,1,2,0,1,2,0,1,2,0,1,2,0,1,2,0,1,3,2,0,1,2,0,3,3,2,0,1,3,3,1,2,0,3,3,1,3,3,3,2,0]","40","280","8","422","","<div class=""feedback-message""></div><div class=""stimulus-container""><div class=""position-wrapper""><div class=""position-box active"" data-position=""0""></div></div><div class=""position-wrapper""><div class=""position-box "" data-position=""1""></div></div><div class=""position-wrapper""><div class=""position-box "" data-position=""2""></div></div><div class=""position-wrapper""><div class=""position-box "" data-position=""3""></div></div></div><div class=""finger-diagram-container"">
			<img src=""assets/finger-diagrams/finger-diagram-4pos.png"" alt=""Finger position guide"" class=""finger-diagram"" />
		</div>","d","0","d","true","0","5","5","",""
"","","","","","main","feedback","html-keyboard-response","44","119869","0.0-17.0-0.0-1.0","P_2efef0f6cee120371577824551b30a495b52d5902f33d1bb1a31631d7ff36b72","6975d475053a04ec2a824d54","6975d5638f99b4a10d842154","4","[[0.02736968909322194,0.5858593039421993,0,0.3867710069645787],[0,0.060260165899335215,0.701326755417172,0.23841307868349276],[0.9726301708741357,0.0000023008162070389276,0,0.027367528309657305],[0,0.35387827489883494,0.2986732967287947,0.3474484283723703]]","[1.1240499164293296,1.0963305126500609,0.18105958573962463,1.5809472755632945]","[2,0,3,3,2,0,3,2,0,1,2,0,1,2,0,3,1,2,0,0,1,2,0,3,1,1,3,3,3,2,0,3,2,0,3,2,0,1,2,0,1,3,1,2,0,3,1,3,1,1,2,0,3,1,2,0,0,1,2,0,1,2,0,1,2,0,1,2,0,3,1,1,2,0,3,3,3,3,3,1,3,2,0,1,2,0,3,3,1,2,0,1,2,0,1,2,0,1,2,0,1,2,0,1,3,2,0,1,3,1,2,0,1,2,0,3,1,2,0,3,1,2,0,3,2,0,3,3,1,2,0,1,3,1,1,2,0,1,3,2,0,3,1,3,1,3,3,2,0,1,3,1,3,1,2,0,1,2,0,3,2,0,1,1,2,0,1,2,0,1,2,0,1,2,0,3,1,3,2,0,1,3,3,2,0,1,2,0,1,3,3,3,3,3,1,3,3,3,2,0,1,2,0,3,3,1,2,0,3,1,1,2,0,3,1,2,0,1,2,0,1,3,3,2,0,1,2,0,3,3,1,2,0,3,2,0,1,2,0,3,1,2,0,1,2,0,1,2,0,1,2,0,1,2,0,1,3,2,0,1,2,0,3,3,2,0,1,3,3,1,2,0,3,3,1,3,3,3,2,0]","40","280","8","null","","<div class=""feedback-message""><div class=""feedback-correct"">✓</div></div><div class=""stimulus-container""><div class=""position-wrapper""><div class=""position-box active"" data-position=""0""></div></div><div class=""position-wrapper""><div class=""position-box "" data-position=""1""></div></div><div class=""position-wrapper""><div class=""position-box "" data-position=""2""></div></div><div class=""position-wrapper""><div class=""position-box "" data-position=""3""></div></div></div><div class=""finger-diagram-container"">
			<img src=""assets/finger-diagrams/finger-diagram-4pos.png"" alt=""Finger position guide"" class=""finger-diagram"" />
		</div>","null","","","","","","","",""
"","","","","","main","rsi","html-keyboard-response","45","119995","0.0-17.0-1.0","P_2efef0f6cee120371577824551b30a495b52d5902f33d1bb1a31631d7ff36b72","6975d475053a04ec2a824d54","6975d5638f99b4a10d842154","4","[[0.02736968909322194,0.5858593039421993,0,0.3867710069645787],[0,0.060260165899335215,0.701326755417172,0.23841307868349276],[0.9726301708741357,0.0000023008162070389276,0,0.027367528309657305],[0,0.35387827489883494,0.2986732967287947,0.3474484283723703]]","[1.1240499164293296,1.0963305126500609,0.18105958573962463,1.5809472755632945]","[2,0,3,3,2,0,3,2,0,1,2,0,1,2,0,3,1,2,0,0,1,2,0,3,1,1,3,3,3,2,0,3,2,0,3,2,0,1,2,0,1,3,1,2,0,3,1,3,1,1,2,0,3,1,2,0,0,1,2,0,1,2,0,1,2,0,1,2,0,3,1,1,2,0,3,3,3,3,3,1,3,2,0,1,2,0,3,3,1,2,0,1,2,0,1,2,0,1,2,0,1,2,0,1,3,2,0,1,3,1,2,0,1,2,0,3,1,2,0,3,1,2,0,3,2,0,3,3,1,2,0,1,3,1,1,2,0,1,3,2,0,3,1,3,1,3,3,2,0,1,3,1,3,1,2,0,1,2,0,3,2,0,1,1,2,0,1,2,0,1,2,0,1,2,0,3,1,3,2,0,1,3,3,2,0,1,2,0,1,3,3,3,3,3,1,3,3,3,2,0,1,2,0,3,3,1,2,0,3,1,1,2,0,3,1,2,0,1,2,0,1,3,3,2,0,1,2,0,3,3,1,2,0,3,2,0,1,2,0,3,1,2,0,1,2,0,1,2,0,1,2,0,1,2,0,1,3,2,0,1,2,0,3,3,2,0,1,3,3,1,2,0,3,3,1,3,3,3,2,0]","40","280","8","null","","<div class=""feedback-message""></div><div class=""stimulus-container""><div class=""position-wrapper""><div class=""position-box "" data-position=""0""></div></div><div class=""position-wrapper""><div class=""position-box "" data-position=""1""></div></div><div class=""position-wrapper""><div class=""position-box "" data-position=""2""></div></div><div class=""position-wrapper""><div class=""position-box "" data-position=""3""></div></div></div><div class=""finger-diagram-container"">
			<img src=""assets/finger-diagrams/finger-diagram-4pos.png"" alt=""Finger position guide"" class=""finger-diagram"" />
		</div>","null","","","","","","","",""
"","","","","","main","stimulus","html-keyboard-response","46","120380","0.0-18.0-0.0-0.0","P_2efef0f6cee120371577824551b30a495b52d5902f33d1bb1a31631d7ff36b72","6975d475053a04ec2a824d54","6975d5638f99b4a10d842154","4","[[0.02736968909322194,0.5858593039421993,0,0.3867710069645787],[0,0.060260165899335215,0.701326755417172,0.23841307868349276],[0.9726301708741357,0.0000023008162070389276,0,0.027367528309657305],[0,0.35387827489883494,0.2986732967287947,0.3474484283723703]]","[1.1240499164293296,1.0963305126500609,0.18105958573962463,1.5809472755632945]","[2,0,3,3,2,0,3,2,0,1,2,0,1,2,0,3,1,2,0,0,1,2,0,3,1,1,3,3,3,2,0,3,2,0,3,2,0,1,2,0,1,3,1,2,0,3,1,3,1,1,2,0,3,1,2,0,0,1,2,0,1,2,0,1,2,0,1,2,0,3,1,1,2,0,3,3,3,3,3,1,3,2,0,1,2,0,3,3,1,2,0,1,2,0,1,2,0,1,2,0,1,2,0,1,3,2,0,1,3,1,2,0,1,2,0,3,1,2,0,3,1,2,0,3,2,0,3,3,1,2,0,1,3,1,1,2,0,1,3,2,0,3,1,3,1,3,3,2,0,1,3,1,3,1,2,0,1,2,0,3,2,0,1,1,2,0,1,2,0,1,2,0,1,2,0,3,1,3,2,0,1,3,3,2,0,1,2,0,1,3,3,3,3,3,1,3,3,3,2,0,1,2,0,3,3,1,2,0,3,1,1,2,0,3,1,2,0,1,2,0,1,3,3,2,0,1,2,0,3,3,1,2,0,3,2,0,1,2,0,3,1,2,0,1,2,0,1,2,0,1,2,0,1,2,0,1,3,2,0,1,2,0,3,3,2,0,1,3,3,1,2,0,3,3,1,3,3,3,2,0]","40","280","8","384","","<div class=""feedback-message""></div><div class=""stimulus-container""><div class=""position-wrapper""><div class=""position-box "" data-position=""0""></div></div><div class=""position-wrapper""><div class=""position-box "" data-position=""1""></div></div><div class=""position-wrapper""><div class=""position-box "" data-position=""2""></div></div><div class=""position-wrapper""><div class=""position-box active"" data-position=""3""></div></div></div><div class=""finger-diagram-container"">
			<img src=""assets/finger-diagrams/finger-diagram-4pos.png"" alt=""Finger position guide"" class=""finger-diagram"" />
		</div>","k","3","k","true","0","6","6","",""
"","","","","","main","feedback","html-keyboard-response","47","120586","0.0-18.0-0.0-1.0","P_2efef0f6cee120371577824551b30a495b52d5902f33d1bb1a31631d7ff36b72","6975d475053a04ec2a824d54","6975d5638f99b4a10d842154","4","[[0.02736968909322194,0.5858593039421993,0,0.3867710069645787],[0,0.060260165899335215,0.701326755417172,0.23841307868349276],[0.9726301708741357,0.0000023008162070389276,0,0.027367528309657305],[0,0.35387827489883494,0.2986732967287947,0.3474484283723703]]","[1.1240499164293296,1.0963305126500609,0.18105958573962463,1.5809472755632945]","[2,0,3,3,2,0,3,2,0,1,2,0,1,2,0,3,1,2,0,0,1,2,0,3,1,1,3,3,3,2,0,3,2,0,3,2,0,1,2,0,1,3,1,2,0,3,1,3,1,1,2,0,3,1,2,0,0,1,2,0,1,2,0,1,2,0,1,2,0,3,1,1,2,0,3,3,3,3,3,1,3,2,0,1,2,0,3,3,1,2,0,1,2,0,1,2,0,1,2,0,1,2,0,1,3,2,0,1,3,1,2,0,1,2,0,3,1,2,0,3,1,2,0,3,2,0,3,3,1,2,0,1,3,1,1,2,0,1,3,2,0,3,1,3,1,3,3,2,0,1,3,1,3,1,2,0,1,2,0,3,2,0,1,1,2,0,1,2,0,1,2,0,1,2,0,3,1,3,2,0,1,3,3,2,0,1,2,0,1,3,3,3,3,3,1,3,3,3,2,0,1,2,0,3,3,1,2,0,3,1,1,2,0,3,1,2,0,1,2,0,1,3,3,2,0,1,2,0,3,3,1,2,0,3,2,0,1,2,0,3,1,2,0,1,2,0,1,2,0,1,2,0,1,2,0,1,3,2,0,1,2,0,3,3,2,0,1,3,3,1,2,0,3,3,1,3,3,3,2,0]","40","280","8","null","","<div class=""feedback-message""><div class=""feedback-correct"">✓</div></div><div class=""stimulus-container""><div class=""position-wrapper""><div class=""position-box "" data-position=""0""></div></div><div class=""position-wrapper""><div class=""position-box "" data-position=""1""></div></div><div class=""position-wrapper""><div class=""position-box "" data-position=""2""></div></div><div class=""position-wrapper""><div class=""position-box active"" data-position=""3""></div></div></div><div class=""finger-diagram-container"">
			<img src=""assets/finger-diagrams/finger-diagram-4pos.png"" alt=""Finger position guide"" class=""finger-diagram"" />
		</div>","null","","","","","","","",""
"","","","","","main","rsi","html-keyboard-response","48","120712","0.0-18.0-1.0","P_2efef0f6cee120371577824551b30a495b52d5902f33d1bb1a31631d7ff36b72","6975d475053a04ec2a824d54","6975d5638f99b4a10d842154","4","[[0.02736968909322194,0.5858593039421993,0,0.3867710069645787],[0,0.060260165899335215,0.701326755417172,0.23841307868349276],[0.9726301708741357,0.0000023008162070389276,0,0.027367528309657305],[0,0.35387827489883494,0.2986732967287947,0.3474484283723703]]","[1.1240499164293296,1.0963305126500609,0.18105958573962463,1.5809472755632945]","[2,0,3,3,2,0,3,2,0,1,2,0,1,2,0,3,1,2,0,0,1,2,0,3,1,1,3,3,3,2,0,3,2,0,3,2,0,1,2,0,1,3,1,2,0,3,1,3,1,1,2,0,3,1,2,0,0,1,2,0,1,2,0,1,2,0,1,2,0,3,1,1,2,0,3,3,3,3,3,1,3,2,0,1,2,0,3,3,1,2,0,1,2,0,1,2,0,1,2,0,1,2,0,1,3,2,0,1,3,1,2,0,1,2,0,3,1,2,0,3,1,2,0,3,2,0,3,3,1,2,0,1,3,1,1,2,0,1,3,2,0,3,1,3,1,3,3,2,0,1,3,1,3,1,2,0,1,2,0,3,2,0,1,1,2,0,1,2,0,1,2,0,1,2,0,3,1,3,2,0,1,3,3,2,0,1,2,0,1,3,3,3,3,3,1,3,3,3,2,0,1,2,0,3,3,1,2,0,3,1,1,2,0,3,1,2,0,1,2,0,1,3,3,2,0,1,2,0,3,3,1,2,0,3,2,0,1,2,0,3,1,2,0,1,2,0,1,2,0,1,2,0,1,2,0,1,3,2,0,1,2,0,3,3,2,0,1,3,3,1,2,0,3,3,1,3,3,3,2,0]","40","280","8","null","","<div class=""feedback-message""></div><div class=""stimulus-container""><div class=""position-wrapper""><div class=""position-box "" data-position=""0""></div></div><div class=""position-wrapper""><div class=""position-box "" data-position=""1""></div></div><div class=""position-wrapper""><div class=""position-box "" data-position=""2""></div></div><div class=""position-wrapper""><div class=""position-box "" data-position=""3""></div></div></div><div class=""finger-diagram-container"">
			<img src=""assets/finger-diagrams/finger-diagram-4pos.png"" alt=""Finger position guide"" class=""finger-diagram"" />
		</div>","null","","","","","","","",""
"","","","","","main","stimulus","html-keyboard-response","49","121116","0.0-19.0-0.0-0.0","P_2efef0f6cee120371577824551b30a495b52d5902f33d1bb1a31631d7ff36b72","6975d475053a04ec2a824d54","6975d5638f99b4a10d842154","4","[[0.02736968909322194,0.5858593039421993,0,0.3867710069645787],[0,0.060260165899335215,0.701326755417172,0.23841307868349276],[0.9726301708741357,0.0000023008162070389276,0,0.027367528309657305],[0,0.35387827489883494,0.2986732967287947,0.3474484283723703]]","[1.1240499164293296,1.0963305126500609,0.18105958573962463,1.5809472755632945]","[2,0,3,3,2,0,3,2,0,1,2,0,1,2,0,3,1,2,0,0,1,2,0,3,1,1,3,3,3,2,0,3,2,0,3,2,0,1,2,0,1,3,1,2,0,3,1,3,1,1,2,0,3,1,2,0,0,1,2,0,1,2,0,1,2,0,1,2,0,3,1,1,2,0,3,3,3,3,3,1,3,2,0,1,2,0,3,3,1,2,0,1,2,0,1,2,0,1,2,0,1,2,0,1,3,2,0,1,3,1,2,0,1,2,0,3,1,2,0,3,1,2,0,3,2,0,3,3,1,2,0,1,3,1,1,2,0,1,3,2,0,3,1,3,1,3,3,2,0,1,3,1,3,1,2,0,1,2,0,3,2,0,1,1,2,0,1,2,0,1,2,0,1,2,0,3,1,3,2,0,1,3,3,2,0,1,2,0,1,3,3,3,3,3,1,3,3,3,2,0,1,2,0,3,3,1,2,0,3,1,1,2,0,3,1,2,0,1,2,0,1,3,3,2,0,1,2,0,3,3,1,2,0,3,2,0,1,2,0,3,1,2,0,1,2,0,1,2,0,1,2,0,1,2,0,1,3,2,0,1,2,0,3,3,2,0,1,3,3,1,2,0,3,3,1,3,3,3,2,0]","40","280","8","403","","<div class=""feedback-message""></div><div class=""stimulus-container""><div class=""position-wrapper""><div class=""position-box "" data-position=""0""></div></div><div class=""position-wrapper""><div class=""position-box "" data-position=""1""></div></div><div class=""position-wrapper""><div class=""position-box active"" data-position=""2""></div></div><div class=""position-wrapper""><div class=""position-box "" data-position=""3""></div></div></div><div class=""finger-diagram-container"">
			<img src=""assets/finger-diagrams/finger-diagram-4pos.png"" alt=""Finger position guide"" class=""finger-diagram"" />
		</div>","j","2","j","true","0","7","7","",""
"","","","","","main","feedback","html-keyboard-response","50","121323","0.0-19.0-0.0-1.0","P_2efef0f6cee120371577824551b30a495b52d5902f33d1bb1a31631d7ff36b72","6975d475053a04ec2a824d54","6975d5638f99b4a10d842154","4","[[0.02736968909322194,0.5858593039421993,0,0.3867710069645787],[0,0.060260165899335215,0.701326755417172,0.23841307868349276],[0.9726301708741357,0.0000023008162070389276,0,0.027367528309657305],[0,0.35387827489883494,0.2986732967287947,0.3474484283723703]]","[1.1240499164293296,1.0963305126500609,0.18105958573962463,1.5809472755632945]","[2,0,3,3,2,0,3,2,0,1,2,0,1,2,0,3,1,2,0,0,1,2,0,3,1,1,3,3,3,2,0,3,2,0,3,2,0,1,2,0,1,3,1,2,0,3,1,3,1,1,2,0,3,1,2,0,0,1,2,0,1,2,0,1,2,0,1,2,0,3,1,1,2,0,3,3,3,3,3,1,3,2,0,1,2,0,3,3,1,2,0,1,2,0,1,2,0,1,2,0,1,2,0,1,3,2,0,1,3,1,2,0,1,2,0,3,1,2,0,3,1,2,0,3,2,0,3,3,1,2,0,1,3,1,1,2,0,1,3,2,0,3,1,3,1,3,3,2,0,1,3,1,3,1,2,0,1,2,0,3,2,0,1,1,2,0,1,2,0,1,2,0,1,2,0,3,1,3,2,0,1,3,3,2,0,1,2,0,1,3,3,3,3,3,1,3,3,3,2,0,1,2,0,3,3,1,2,0,3,1,1,2,0,3,1,2,0,1,2,0,1,3,3,2,0,1,2,0,3,3,1,2,0,3,2,0,1,2,0,3,1,2,0,1,2,0,1,2,0,1,2,0,1,2,0,1,3,2,0,1,2,0,3,3,2,0,1,3,3,1,2,0,3,3,1,3,3,3,2,0]","40","280","8","null","","<div class=""feedback-message""><div class=""feedback-correct"">✓</div></div><div class=""stimulus-container""><div class=""position-wrapper""><div class=""position-box "" data-position=""0""></div></div><div class=""position-wrapper""><div class=""position-box "" data-position=""1""></div></div><div class=""position-wrapper""><div class=""position-box active"" data-position=""2""></div></div><div class=""position-wrapper""><div class=""position-box "" data-position=""3""></div></div></div><div class=""finger-diagram-container"">
			<img src=""assets/finger-diagrams/finger-diagram-4pos.png"" alt=""Finger position guide"" class=""finger-diagram"" />
		</div>","null","","","","","","","",""
"","","","","","main","rsi","html-keyboard-response","51","121448","0.0-19.0-1.0","P_2efef0f6cee120371577824551b30a495b52d5902f33d1bb1a31631d7ff36b72","6975d475053a04ec2a824d54","6975d5638f99b4a10d842154","4","[[0.02736968909322194,0.5858593039421993,0,0.3867710069645787],[0,0.060260165899335215,0.701326755417172,0.23841307868349276],[0.9726301708741357,0.0000023008162070389276,0,0.027367528309657305],[0,0.35387827489883494,0.2986732967287947,0.3474484283723703]]","[1.1240499164293296,1.0963305126500609,0.18105958573962463,1.5809472755632945]","[2,0,3,3,2,0,3,2,0,1,2,0,1,2,0,3,1,2,0,0,1,2,0,3,1,1,3,3,3,2,0,3,2,0,3,2,0,1,2,0,1,3,1,2,0,3,1,3,1,1,2,0,3,1,2,0,0,1,2,0,1,2,0,1,2,0,1,2,0,3,1,1,2,0,3,3,3,3,3,1,3,2,0,1,2,0,3,3,1,2,0,1,2,0,1,2,0,1,2,0,1,2,0,1,3,2,0,1,3,1,2,0,1,2,0,3,1,2,0,3,1,2,0,3,2,0,3,3,1,2,0,1,3,1,1,2,0,1,3,2,0,3,1,3,1,3,3,2,0,1,3,1,3,1,2,0,1,2,0,3,2,0,1,1,2,0,1,2,0,1,2,0,1,2,0,3,1,3,2,0,1,3,3,2,0,1,2,0,1,3,3,3,3,3,1,3,3,3,2,0,1,2,0,3,3,1,2,0,3,1,1,2,0,3,1,2,0,1,2,0,1,3,3,2,0,1,2,0,3,3,1,2,0,3,2,0,1,2,0,3,1,2,0,1,2,0,1,2,0,1,2,0,1,2,0,1,3,2,0,1,2,0,3,3,2,0,1,3,3,1,2,0,3,3,1,3,3,3,2,0]","40","280","8","null","","<div class=""feedback-message""></div><div class=""stimulus-container""><div class=""position-wrapper""><div class=""position-box "" data-position=""0""></div></div><div class=""position-wrapper""><div class=""position-box "" data-position=""1""></div></div><div class=""position-wrapper""><div class=""position-box "" data-position=""2""></div></div><div class=""position-wrapper""><div class=""position-box "" data-position=""3""></div></div></div><div class=""finger-diagram-container"">
			<img src=""assets/finger-diagrams/finger-diagram-4pos.png"" alt=""Finger position guide"" class=""finger-diagram"" />
		</div>","null","","","","","","","",""
"","","","","","main","stimulus","html-keyboard-response","52","121852","0.0-20.0-0.0-0.0","P_2efef0f6cee120371577824551b30a495b52d5902f33d1bb1a31631d7ff36b72","6975d475053a04ec2a824d54","6975d5638f99b4a10d842154","4","[[0.02736968909322194,0.5858593039421993,0,0.3867710069645787],[0,0.060260165899335215,0.701326755417172,0.23841307868349276],[0.9726301708741357,0.0000023008162070389276,0,0.027367528309657305],[0,0.35387827489883494,0.2986732967287947,0.3474484283723703]]","[1.1240499164293296,1.0963305126500609,0.18105958573962463,1.5809472755632945]","[2,0,3,3,2,0,3,2,0,1,2,0,1,2,0,3,1,2,0,0,1,2,0,3,1,1,3,3,3,2,0,3,2,0,3,2,0,1,2,0,1,3,1,2,0,3,1,3,1,1,2,0,3,1,2,0,0,1,2,0,1,2,0,1,2,0,1,2,0,3,1,1,2,0,3,3,3,3,3,1,3,2,0,1,2,0,3,3,1,2,0,1,2,0,1,2,0,1,2,0,1,2,0,1,3,2,0,1,3,1,2,0,1,2,0,3,1,2,0,3,1,2,0,3,2,0,3,3,1,2,0,1,3,1,1,2,0,1,3,2,0,3,1,3,1,3,3,2,0,1,3,1,3,1,2,0,1,2,0,3,2,0,1,1,2,0,1,2,0,1,2,0,1,2,0,3,1,3,2,0,1,3,3,2,0,1,2,0,1,3,3,3,3,3,1,3,3,3,2,0,1,2,0,3,3,1,2,0,3,1,1,2,0,3,1,2,0,1,2,0,1,3,3,2,0,1,2,0,3,3,1,2,0,3,2,0,1,2,0,3,1,2,0,1,2,0,1,2,0,1,2,0,1,2,0,1,3,2,0,1,2,0,3,3,2,0,1,3,3,1,2,0,3,3,1,3,3,3,2,0]","40","280","8","403","","<div class=""feedback-message""></div><div class=""stimulus-container""><div class=""position-wrapper""><div class=""position-box active"" data-position=""0""></div></div><div class=""position-wrapper""><div class=""position-box "" data-position=""1""></div></div><div class=""position-wrapper""><div class=""position-box "" data-position=""2""></div></div><div class=""position-wrapper""><div class=""position-box "" data-position=""3""></div></div></div><div class=""finger-diagram-container"">
			<img src=""assets/finger-diagrams/finger-diagram-4pos.png"" alt=""Finger position guide"" class=""finger-diagram"" />
		</div>","d","0","d","true","0","8","8","",""
"","","","","","main","feedback","html-keyboard-response","53","122055","0.0-20.0-0.0-1.0","P_2efef0f6cee120371577824551b30a495b52d5902f33d1bb1a31631d7ff36b72","6975d475053a04ec2a824d54","6975d5638f99b4a10d842154","4","[[0.02736968909322194,0.5858593039421993,0,0.3867710069645787],[0,0.060260165899335215,0.701326755417172,0.23841307868349276],[0.9726301708741357,0.0000023008162070389276,0,0.027367528309657305],[0,0.35387827489883494,0.2986732967287947,0.3474484283723703]]","[1.1240499164293296,1.0963305126500609,0.18105958573962463,1.5809472755632945]","[2,0,3,3,2,0,3,2,0,1,2,0,1,2,0,3,1,2,0,0,1,2,0,3,1,1,3,3,3,2,0,3,2,0,3,2,0,1,2,0,1,3,1,2,0,3,1,3,1,1,2,0,3,1,2,0,0,1,2,0,1,2,0,1,2,0,1,2,0,3,1,1,2,0,3,3,3,3,3,1,3,2,0,1,2,0,3,3,1,2,0,1,2,0,1,2,0,1,2,0,1,2,0,1,3,2,0,1,3,1,2,0,1,2,0,3,1,2,0,3,1,2,0,3,2,0,3,3,1,2,0,1,3,1,1,2,0,1,3,2,0,3,1,3,1,3,3,2,0,1,3,1,3,1,2,0,1,2,0,3,2,0,1,1,2,0,1,2,0,1,2,0,1,2,0,3,1,3,2,0,1,3,3,2,0,1,2,0,1,3,3,3,3,3,1,3,3,3,2,0,1,2,0,3,3,1,2,0,3,1,1,2,0,3,1,2,0,1,2,0,1,3,3,2,0,1,2,0,3,3,1,2,0,3,2,0,1,2,0,3,1,2,0,1,2,0,1,2,0,1,2,0,1,2,0,1,3,2,0,1,2,0,3,3,2,0,1,3,3,1,2,0,3,3,1,3,3,3,2,0]","40","280","8","null","","<div class=""feedback-message""><div class=""feedback-correct"">✓</div></div><div class=""stimulus-container""><div class=""position-wrapper""><div class=""position-box active"" data-position=""0""></div></div><div class=""position-wrapper""><div class=""position-box "" data-position=""1""></div></div><div class=""position-wrapper""><div class=""position-box "" data-position=""2""></div></div><div class=""position-wrapper""><div class=""position-box "" data-position=""3""></div></div></div><div class=""finger-diagram-container"">
			<img src=""assets/finger-diagrams/finger-diagram-4pos.png"" alt=""Finger position guide"" class=""finger-diagram"" />
		</div>","null","","","","","","","",""
