"success","timeout","failed_images","failed_audio","failed_video","phase","experiment_trial_type","trial_type","trial_index","time_elapsed","internal_node_id","subject_id","study_id","session_id","matrix_size","transition_matrix","conditional_entropies","sequence","trials_per_block","total_trials","practice_trials","rt","view_history","stimulus","response","position","correct_key","correct","block","trial_in_block","overall_trial","question_order","questionnaire_item"
"true","false","[]","[]","[]","preload","preload","preload","0","279","0.0-0.0","P_76e9938d35766a572c6ffa85c5605204cb461d529c7fcde090d2be5769b23ef3","6975d475053a04ec2a824d54","6975d5a7604ee2dc7b66e285","6","[[0.22736964714484262,1.4389615966943733e-11,0,0.20984759685851753,0.06520404977486319,0.4975787062073871],[7.505216870414609e-13,1.4258841105232542e-11,0.9882196383546002,0.011780361555829953,5.905431977191516e-11,1.550626783568228e-11],[0.2273234356477396,1.4382488357004985e-11,0,0.20981619168212484,0.06519783227405394,0.49766254038169905],[0.27410027860516395,1.4381596613135696e-11,0.011768424314658198,0.21370829276791165,0.4956618083854289,0.004761195912455649],[0.004151376708677999,0.8541519975946235,0,0.14169662567971403,1.363513216867255e-12,1.562112260929659e-11],[0.26705763578310293,0.14585056634172525,0,0.21315316928175454,0.3739386285926206,7.966607020055105e-13]]","[1.7164586615480488,0.09237731181353706,1.7163490803009984,1.6016287006430234,0.6265709654819551,1.9197818344737418]","[2,5,3,4,1,2,0,3,0,3,4,3,4,1,2,0,5,0,4,1,2,0,5,4,1,2,0,3,4,1,2,5,4,3,4,1,2,5,0,5,0,0,5,4,1,2,5,3,3,3,0,0,5,1,2,3,0,5,0,4,1,2,5,4,1,2,3,4,1,2,0,0,5,4,1,2,5,0,3,3,3,0,5,0,0,0,5,4,3,0,0,3,4,1,2,5,4,1,2,5,4,3,4,3,4,1,2,5,1,2,0,0,3,4,1,2,0,3,4,3,4,1,2,5,4,1,2,3,0,3,3,3,4,1,2,3,3,4,1,2,5,4,1,2,0,3,0,5,4,3,4,1,2,5,3,0,5,0,0,5,0,5,4,1,2,5,3,4,1,2,4,1,2,5,0,3,4,1,2,5,4,3,4,1,2,5,0,0,5,0,3,4,1,2,5,4,1,2,5,4,1,2,5,1,2,0,0,5,4,1,2,5,3,4,3,4,1,2,5,3,4,1,2,5,1,2,5,4,1,2,0,5,4,1,2,5,4,1,2,5,1,2,0,3,0,5,1,2,3,3,4,1,2,5,0,5,3,4,1,2,5,4,1,2,0,5,1,2,0,4,1,2,5,1,2,3,4,1,2,5,4,1,2,5,0,5,1,2,5,0,5,1,2,0,0,5,4,1,2,5,0,0,3,4,3,4,1,2,5,4,1,2,0,5,4,3,4,3,3,4,1,2,4,1,3,0,5,4,1,3,3,3,0,5,4,1,2,5,1,2,0,0,0,0,5,4,1,2,4,1,2,3,4,3,4,3,3,0,0,3,4,1,2,3,3,4,1,2,5,0,3,0,3,3,4,1,2,3,4,1,2,5,4,1,2,3,4,1,2,3,4,1,2,5,0,5,3,3,0,0,3,4,3,0,3,0,0,5,0,5,3,4,1,2,0,3,4,1,2,3]","60","420","12","","","","","","","","","","","",""
"true","","","","","fullscreen","fullscreen","fullscreen","1","2518","0.0-1.0","P_76e9938d35766a572c6ffa85c5605204cb461d529c7fcde090d2be5769b23ef3","6975d475053a04ec2a824d54","6975d5a7604ee2dc7b66e285","6","[[0.22736964714484262,1.4389615966943733e-11,0,0.20984759685851753,0.06520404977486319,0.4975787062073871],[7.505216870414609e-13,1.4258841105232542e-11,0.9882196383546002,0.011780361555829953,5.905431977191516e-11,1.550626783568228e-11],[0.2273234356477396,1.4382488357004985e-11,0,0.20981619168212484,0.06519783227405394,0.49766254038169905],[0.27410027860516395,1.4381596613135696e-11,0.011768424314658198,0.21370829276791165,0.4956618083854289,0.004761195912455649],[0.004151376708677999,0.8541519975946235,0,0.14169662567971403,1.363513216867255e-12,1.562112260929659e-11],[0.26705763578310293,0.14585056634172525,0,0.21315316928175454,0.3739386285926206,7.966607020055105e-13]]","[1.7164586615480488,0.09237731181353706,1.7163490803009984,1.6016287006430234,0.6265709654819551,1.9197818344737418]","[2,5,3,4,1,2,0,3,0,3,4,3,4,1,2,0,5,0,4,1,2,0,5,4,1,2,0,3,4,1,2,5,4,3,4,1,2,5,0,5,0,0,5,4,1,2,5,3,3,3,0,0,5,1,2,3,0,5,0,4,1,2,5,4,1,2,3,4,1,2,0,0,5,4,1,2,5,0,3,3,3,0,5,0,0,0,5,4,3,0,0,3,4,1,2,5,4,1,2,5,4,3,4,3,4,1,2,5,1,2,0,0,3,4,1,2,0,3,4,3,4,1,2,5,4,1,2,3,0,3,3,3,4,1,2,3,3,4,1,2,5,4,1,2,0,3,0,5,4,3,4,1,2,5,3,0,5,0,0,5,0,5,4,1,2,5,3,4,1,2,4,1,2,5,0,3,4,1,2,5,4,3,4,1,2,5,0,0,5,0,3,4,1,2,5,4,1,2,5,4,1,2,5,1,2,0,0,5,4,1,2,5,3,4,3,4,1,2,5,3,4,1,2,5,1,2,5,4,1,2,0,5,4,1,2,5,4,1,2,5,1,2,0,3,0,5,1,2,3,3,4,1,2,5,0,5,3,4,1,2,5,4,1,2,0,5,1,2,0,4,1,2,5,1,2,3,4,1,2,5,4,1,2,5,0,5,1,2,5,0,5,1,2,0,0,5,4,1,2,5,0,0,3,4,3,4,1,2,5,4,1,2,0,5,4,3,4,3,3,4,1,2,4,1,3,0,5,4,1,3,3,3,0,5,4,1,2,5,1,2,0,0,0,0,5,4,1,2,4,1,2,3,4,3,4,3,3,0,0,3,4,1,2,3,3,4,1,2,5,0,3,0,3,3,4,1,2,3,4,1,2,5,4,1,2,3,4,1,2,3,4,1,2,5,0,5,3,3,0,0,3,4,3,0,3,0,0,5,0,5,3,4,1,2,0,3,4,1,2,3]","60","420","12","1236","","","","","","","","","","",""
"","","","","","instructions","instructions","instructions","2","37448","0.0-2.0","P_76e9938d35766a572c6ffa85c5605204cb461d529c7fcde090d2be5769b23ef3","6975d475053a04ec2a824d54","6975d5a7604ee2dc7b66e285","6","[[0.22736964714484262,1.4389615966943733e-11,0,0.20984759685851753,0.06520404977486319,0.4975787062073871],[7.505216870414609e-13,1.4258841105232542e-11,0.9882196383546002,0.011780361555829953,5.905431977191516e-11,1.550626783568228e-11],[0.2273234356477396,1.4382488357004985e-11,0,0.20981619168212484,0.06519783227405394,0.49766254038169905],[0.27410027860516395,1.4381596613135696e-11,0.011768424314658198,0.21370829276791165,0.4956618083854289,0.004761195912455649],[0.004151376708677999,0.8541519975946235,0,0.14169662567971403,1.363513216867255e-12,1.562112260929659e-11],[0.26705763578310293,0.14585056634172525,0,0.21315316928175454,0.3739386285926206,7.966607020055105e-13]]","[1.7164586615480488,0.09237731181353706,1.7163490803009984,1.6016287006430234,0.6265709654819551,1.9197818344737418]","[2,5,3,4,1,2,0,3,0,3,4,3,4,1,2,0,5,0,4,1,2,0,5,4,1,2,0,3,4,1,2,5,4,3,4,1,2,5,0,5,0,0,5,4,1,2,5,3,3,3,0,0,5,1,2,3,0,5,0,4,1,2,5,4,1,2,3,4,1,2,0,0,5,4,1,2,5,0,3,3,3,0,5,0,0,0,5,4,3,0,0,3,4,1,2,5,4,1,2,5,4,3,4,3,4,1,2,5,1,2,0,0,3,4,1,2,0,3,4,3,4,1,2,5,4,1,2,3,0,3,3,3,4,1,2,3,3,4,1,2,5,4,1,2,0,3,0,5,4,3,4,1,2,5,3,0,5,0,0,5,0,5,4,1,2,5,3,4,1,2,4,1,2,5,0,3,4,1,2,5,4,3,4,1,2,5,0,0,5,0,3,4,1,2,5,4,1,2,5,4,1,2,5,1,2,0,0,5,4,1,2,5,3,4,3,4,1,2,5,3,4,1,2,5,1,2,5,4,1,2,0,5,4,1,2,5,4,1,2,5,1,2,0,3,0,5,1,2,3,3,4,1,2,5,0,5,3,4,1,2,5,4,1,2,0,5,1,2,0,4,1,2,5,1,2,3,4,1,2,5,4,1,2,5,0,5,1,2,5,0,5,1,2,0,0,5,4,1,2,5,0,0,3,4,3,4,1,2,5,4,1,2,0,5,4,3,4,3,3,4,1,2,4,1,3,0,5,4,1,3,3,3,0,5,4,1,2,5,1,2,0,0,0,0,5,4,1,2,4,1,2,3,4,3,4,3,3,0,0,3,4,1,2,3,3,4,1,2,5,0,3,0,3,3,4,1,2,3,4,1,2,5,4,1,2,3,4,1,2,3,4,1,2,5,0,5,3,3,0,0,3,4,3,0,3,0,0,5,0,5,3,4,1,2,0,3,4,1,2,3]","60","420","12","34929","[{""page_index"":0,""viewing_time"":5407},{""page_index"":1,""viewing_time"":22917},{""page_index"":2,""viewing_time"":4514},{""page_index"":3,""viewing_time"":2091}]","","","","","","","","","",""
"","","","","","practice","stimulus","html-keyboard-response","3","39455","0.0-3.0-0.0-0.0","P_76e9938d35766a572c6ffa85c5605204cb461d529c7fcde090d2be5769b23ef3","6975d475053a04ec2a824d54","6975d5a7604ee2dc7b66e285","6","[[0.22736964714484262,1.4389615966943733e-11,0,0.20984759685851753,0.06520404977486319,0.4975787062073871],[7.505216870414609e-13,1.4258841105232542e-11,0.9882196383546002,0.011780361555829953,5.905431977191516e-11,1.550626783568228e-11],[0.2273234356477396,1.4382488357004985e-11,0,0.20981619168212484,0.06519783227405394,0.49766254038169905],[0.27410027860516395,1.4381596613135696e-11,0.011768424314658198,0.21370829276791165,0.4956618083854289,0.004761195912455649],[0.004151376708677999,0.8541519975946235,0,0.14169662567971403,1.363513216867255e-12,1.562112260929659e-11],[0.26705763578310293,0.14585056634172525,0,0.21315316928175454,0.3739386285926206,7.966607020055105e-13]]","[1.7164586615480488,0.09237731181353706,1.7163490803009984,1.6016287006430234,0.6265709654819551,1.9197818344737418]","[2,5,3,4,1,2,0,3,0,3,4,3,4,1,2,0,5,0,4,1,2,0,5,4,1,2,0,3,4,1,2,5,4,3,4,1,2,5,0,5,0,0,5,4,1,2,5,3,3,3,0,0,5,1,2,3,0,5,0,4,1,2,5,4,1,2,3,4,1,2,0,0,5,4,1,2,5,0,3,3,3,0,5,0,0,0,5,4,3,0,0,3,4,1,2,5,4,1,2,5,4,3,4,3,4,1,2,5,1,2,0,0,3,4,1,2,0,3,4,3,4,1,2,5,4,1,2,3,0,3,3,3,4,1,2,3,3,4,1,2,5,4,1,2,0,3,0,5,4,3,4,1,2,5,3,0,5,0,0,5,0,5,4,1,2,5,3,4,1,2,4,1,2,5,0,3,4,1,2,5,4,3,4,1,2,5,0,0,5,0,3,4,1,2,5,4,1,2,5,4,1,2,5,1,2,0,0,5,4,1,2,5,3,4,3,4,1,2,5,3,4,1,2,5,1,2,5,4,1,2,0,5,4,1,2,5,4,1,2,5,1,2,0,3,0,5,1,2,3,3,4,1,2,5,0,5,3,4,1,2,5,4,1,2,0,5,1,2,0,4,1,2,5,1,2,3,4,1,2,5,4,1,2,5,0,5,1,2,5,0,5,1,2,0,0,5,4,1,2,5,0,0,3,4,3,4,1,2,5,4,1,2,0,5,4,3,4,3,3,4,1,2,4,1,3,0,5,4,1,3,3,3,0,5,4,1,2,5,1,2,0,0,0,0,5,4,1,2,4,1,2,3,4,3,4,3,3,0,0,3,4,1,2,3,3,4,1,2,5,0,3,0,3,3,4,1,2,3,4,1,2,5,4,1,2,3,4,1,2,3,4,1,2,5,0,5,3,3,0,0,3,4,3,0,3,0,0,5,0,5,3,4,1,2,0,3,4,1,2,3]","60","420","12","2007","","<div class=""feedback-message""></div><div class=""stimulus-container""><div class=""position-wrapper""><div class=""key-label"">S</div><div class=""position-box "" data-position=""0""></div></div><div class=""position-wrapper""><div class=""key-label"">D</div><div class=""position-box "" data-position=""1""></div></div><div class=""position-wrapper""><div class=""key-label"">F</div><div class=""position-box "" data-position=""2""></div></div><div class=""position-wrapper""><div class=""key-label"">J</div><div class=""position-box active"" data-position=""3""></div></div><div class=""position-wrapper""><div class=""key-label"">K</div><div class=""position-box "" data-position=""4""></div></div><div class=""position-wrapper""><div class=""key-label"">L</div><div class=""position-box "" data-position=""5""></div></div></div><div class=""finger-diagram-container"">
			<img src=""assets/finger-diagrams/finger-diagram-6pos.png"" alt=""Finger position guide"" class=""finger-diagram"" />
		</div>","j","3","j","true","","","","",""
"","","","","","practice","feedback","html-keyboard-response","4","39658","0.0-3.0-0.0-1.0","P_76e9938d35766a572c6ffa85c5605204cb461d529c7fcde090d2be5769b23ef3","6975d475053a04ec2a824d54","6975d5a7604ee2dc7b66e285","6","[[0.22736964714484262,1.4389615966943733e-11,0,0.20984759685851753,0.06520404977486319,0.4975787062073871],[7.505216870414609e-13,1.4258841105232542e-11,0.9882196383546002,0.011780361555829953,5.905431977191516e-11,1.550626783568228e-11],[0.2273234356477396,1.4382488357004985e-11,0,0.20981619168212484,0.06519783227405394,0.49766254038169905],[0.27410027860516395,1.4381596613135696e-11,0.011768424314658198,0.21370829276791165,0.4956618083854289,0.004761195912455649],[0.004151376708677999,0.8541519975946235,0,0.14169662567971403,1.363513216867255e-12,1.562112260929659e-11],[0.26705763578310293,0.14585056634172525,0,0.21315316928175454,0.3739386285926206,7.966607020055105e-13]]","[1.7164586615480488,0.09237731181353706,1.7163490803009984,1.6016287006430234,0.6265709654819551,1.9197818344737418]","[2,5,3,4,1,2,0,3,0,3,4,3,4,1,2,0,5,0,4,1,2,0,5,4,1,2,0,3,4,1,2,5,4,3,4,1,2,5,0,5,0,0,5,4,1,2,5,3,3,3,0,0,5,1,2,3,0,5,0,4,1,2,5,4,1,2,3,4,1,2,0,0,5,4,1,2,5,0,3,3,3,0,5,0,0,0,5,4,3,0,0,3,4,1,2,5,4,1,2,5,4,3,4,3,4,1,2,5,1,2,0,0,3,4,1,2,0,3,4,3,4,1,2,5,4,1,2,3,0,3,3,3,4,1,2,3,3,4,1,2,5,4,1,2,0,3,0,5,4,3,4,1,2,5,3,0,5,0,0,5,0,5,4,1,2,5,3,4,1,2,4,1,2,5,0,3,4,1,2,5,4,3,4,1,2,5,0,0,5,0,3,4,1,2,5,4,1,2,5,4,1,2,5,1,2,0,0,5,4,1,2,5,3,4,3,4,1,2,5,3,4,1,2,5,1,2,5,4,1,2,0,5,4,1,2,5,4,1,2,5,1,2,0,3,0,5,1,2,3,3,4,1,2,5,0,5,3,4,1,2,5,4,1,2,0,5,1,2,0,4,1,2,5,1,2,3,4,1,2,5,4,1,2,5,0,5,1,2,5,0,5,1,2,0,0,5,4,1,2,5,0,0,3,4,3,4,1,2,5,4,1,2,0,5,4,3,4,3,3,4,1,2,4,1,3,0,5,4,1,3,3,3,0,5,4,1,2,5,1,2,0,0,0,0,5,4,1,2,4,1,2,3,4,3,4,3,3,0,0,3,4,1,2,3,3,4,1,2,5,0,3,0,3,3,4,1,2,3,4,1,2,5,4,1,2,3,4,1,2,3,4,1,2,5,0,5,3,3,0,0,3,4,3,0,3,0,0,5,0,5,3,4,1,2,0,3,4,1,2,3]","60","420","12","null","","<div class=""feedback-message""><div class=""feedback-correct"">✓</div></div><div class=""stimulus-container""><div class=""position-wrapper""><div class=""key-label"">S</div><div class=""position-box "" data-position=""0""></div></div><div class=""position-wrapper""><div class=""key-label"">D</div><div class=""position-box "" data-position=""1""></div></div><div class=""position-wrapper""><div class=""key-label"">F</div><div class=""position-box "" data-position=""2""></div></div><div class=""position-wrapper""><div class=""key-label"">J</div><div class=""position-box active"" data-position=""3""></div></div><div class=""position-wrapper""><div class=""key-label"">K</div><div class=""position-box "" data-position=""4""></div></div><div class=""position-wrapper""><div class=""key-label"">L</div><div class=""position-box "" data-position=""5""></div></div></div><div class=""finger-diagram-container"">
			<img src=""assets/finger-diagrams/finger-diagram-6pos.png"" alt=""Finger position guide"" class=""finger-diagram"" />
		</div>","null","","","","","","","",""
"","","","","","practice","rsi","html-keyboard-response","5","39781","0.0-3.0-1.0","P_76e9938d35766a572c6ffa85c5605204cb461d529c7fcde090d2be5769b23ef3","6975d475053a04ec2a824d54","6975d5a7604ee2dc7b66e285","6","[[0.22736964714484262,1.4389615966943733e-11,0,0.20984759685851753,0.06520404977486319,0.4975787062073871],[7.505216870414609e-13,1.4258841105232542e-11,0.9882196383546002,0.011780361555829953,5.905431977191516e-11,1.550626783568228e-11],[0.2273234356477396,1.4382488357004985e-11,0,0.20981619168212484,0.06519783227405394,0.49766254038169905],[0.27410027860516395,1.4381596613135696e-11,0.011768424314658198,0.21370829276791165,0.4956618083854289,0.004761195912455649],[0.004151376708677999,0.8541519975946235,0,0.14169662567971403,1.363513216867255e-12,1.562112260929659e-11],[0.26705763578310293,0.14585056634172525,0,0.21315316928175454,0.3739386285926206,7.966607020055105e-13]]","[1.7164586615480488,0.09237731181353706,1.7163490803009984,1.6016287006430234,0.6265709654819551,1.9197818344737418]","[2,5,3,4,1,2,0,3,0,3,4,3,4,1,2,0,5,0,4,1,2,0,5,4,1,2,0,3,4,1,2,5,4,3,4,1,2,5,0,5,0,0,5,4,1,2,5,3,3,3,0,0,5,1,2,3,0,5,0,4,1,2,5,4,1,2,3,4,1,2,0,0,5,4,1,2,5,0,3,3,3,0,5,0,0,0,5,4,3,0,0,3,4,1,2,5,4,1,2,5,4,3,4,3,4,1,2,5,1,2,0,0,3,4,1,2,0,3,4,3,4,1,2,5,4,1,2,3,0,3,3,3,4,1,2,3,3,4,1,2,5,4,1,2,0,3,0,5,4,3,4,1,2,5,3,0,5,0,0,5,0,5,4,1,2,5,3,4,1,2,4,1,2,5,0,3,4,1,2,5,4,3,4,1,2,5,0,0,5,0,3,4,1,2,5,4,1,2,5,4,1,2,5,1,2,0,0,5,4,1,2,5,3,4,3,4,1,2,5,3,4,1,2,5,1,2,5,4,1,2,0,5,4,1,2,5,4,1,2,5,1,2,0,3,0,5,1,2,3,3,4,1,2,5,0,5,3,4,1,2,5,4,1,2,0,5,1,2,0,4,1,2,5,1,2,3,4,1,2,5,4,1,2,5,0,5,1,2,5,0,5,1,2,0,0,5,4,1,2,5,0,0,3,4,3,4,1,2,5,4,1,2,0,5,4,3,4,3,3,4,1,2,4,1,3,0,5,4,1,3,3,3,0,5,4,1,2,5,1,2,0,0,0,0,5,4,1,2,4,1,2,3,4,3,4,3,3,0,0,3,4,1,2,3,3,4,1,2,5,0,3,0,3,3,4,1,2,3,4,1,2,5,4,1,2,3,4,1,2,3,4,1,2,5,0,5,3,3,0,0,3,4,3,0,3,0,0,5,0,5,3,4,1,2,0,3,4,1,2,3]","60","420","12","null","","<div class=""feedback-message""></div><div class=""stimulus-container""><div class=""position-wrapper""><div class=""key-label"">S</div><div class=""position-box "" data-position=""0""></div></div><div class=""position-wrapper""><div class=""key-label"">D</div><div class=""position-box "" data-position=""1""></div></div><div class=""position-wrapper""><div class=""key-label"">F</div><div class=""position-box "" data-position=""2""></div></div><div class=""position-wrapper""><div class=""key-label"">J</div><div class=""position-box "" data-position=""3""></div></div><div class=""position-wrapper""><div class=""key-label"">K</div><div class=""position-box "" data-position=""4""></div></div><div class=""position-wrapper""><div class=""key-label"">L</div><div class=""position-box "" data-position=""5""></div></div></div><div class=""finger-diagram-container"">
			<img src=""assets/finger-diagrams/finger-diagram-6pos.png"" alt=""Finger position guide"" class=""finger-diagram"" />
		</div>","null","","","","","","","",""
"","","","","","practice","stimulus","html-keyboard-response","6","40436","0.0-4.0-0.0-0.0","P_76e9938d35766a572c6ffa85c5605204cb461d529c7fcde090d2be5769b23ef3","6975d475053a04ec2a824d54","6975d5a7604ee2dc7b66e285","6","[[0.22736964714484262,1.4389615966943733e-11,0,0.20984759685851753,0.06520404977486319,0.4975787062073871],[7.505216870414609e-13,1.4258841105232542e-11,0.9882196383546002,0.011780361555829953,5.905431977191516e-11,1.550626783568228e-11],[0.2273234356477396,1.4382488357004985e-11,0,0.20981619168212484,0.06519783227405394,0.49766254038169905],[0.27410027860516395,1.4381596613135696e-11,0.011768424314658198,0.21370829276791165,0.4956618083854289,0.004761195912455649],[0.004151376708677999,0.8541519975946235,0,0.14169662567971403,1.363513216867255e-12,1.562112260929659e-11],[0.26705763578310293,0.14585056634172525,0,0.21315316928175454,0.3739386285926206,7.966607020055105e-13]]","[1.7164586615480488,0.09237731181353706,1.7163490803009984,1.6016287006430234,0.6265709654819551,1.9197818344737418]","[2,5,3,4,1,2,0,3,0,3,4,3,4,1,2,0,5,0,4,1,2,0,5,4,1,2,0,3,4,1,2,5,4,3,4,1,2,5,0,5,0,0,5,4,1,2,5,3,3,3,0,0,5,1,2,3,0,5,0,4,1,2,5,4,1,2,3,4,1,2,0,0,5,4,1,2,5,0,3,3,3,0,5,0,0,0,5,4,3,0,0,3,4,1,2,5,4,1,2,5,4,3,4,3,4,1,2,5,1,2,0,0,3,4,1,2,0,3,4,3,4,1,2,5,4,1,2,3,0,3,3,3,4,1,2,3,3,4,1,2,5,4,1,2,0,3,0,5,4,3,4,1,2,5,3,0,5,0,0,5,0,5,4,1,2,5,3,4,1,2,4,1,2,5,0,3,4,1,2,5,4,3,4,1,2,5,0,0,5,0,3,4,1,2,5,4,1,2,5,4,1,2,5,1,2,0,0,5,4,1,2,5,3,4,3,4,1,2,5,3,4,1,2,5,1,2,5,4,1,2,0,5,4,1,2,5,4,1,2,5,1,2,0,3,0,5,1,2,3,3,4,1,2,5,0,5,3,4,1,2,5,4,1,2,0,5,1,2,0,4,1,2,5,1,2,3,4,1,2,5,4,1,2,5,0,5,1,2,5,0,5,1,2,0,0,5,4,1,2,5,0,0,3,4,3,4,1,2,5,4,1,2,0,5,4,3,4,3,3,4,1,2,4,1,3,0,5,4,1,3,3,3,0,5,4,1,2,5,1,2,0,0,0,0,5,4,1,2,4,1,2,3,4,3,4,3,3,0,0,3,4,1,2,3,3,4,1,2,5,0,3,0,3,3,4,1,2,3,4,1,2,5,4,1,2,3,4,1,2,3,4,1,2,5,0,5,3,3,0,0,3,4,3,0,3,0,0,5,0,5,3,4,1,2,0,3,4,1,2,3]","60","420","12","654","","<div class=""feedback-message""></div><div class=""stimulus-container""><div class=""position-wrapper""><div class=""key-label"">S</div><div class=""position-box "" data-position=""0""></div></div><div class=""position-wrapper""><div class=""key-label"">D</div><div class=""position-box "" data-position=""1""></div></div><div class=""position-wrapper""><div class=""key-label"">F</div><div class=""position-box "" data-position=""2""></div></div><div class=""position-wrapper""><div class=""key-label"">J</div><div class=""position-box "" data-position=""3""></div></div><div class=""position-wrapper""><div class=""key-label"">K</div><div class=""position-box "" data-position=""4""></div></div><div class=""position-wrapper""><div class=""key-label"">L</div><div class=""position-box active"" data-position=""5""></div></div></div><div class=""finger-diagram-container"">
			<img src=""assets/finger-diagrams/finger-diagram-6pos.png"" alt=""Finger position guide"" class=""finger-diagram"" />
		</div>","l","5","l","true","","","","",""
"","","","","","practice","feedback","html-keyboard-response","7","40639","0.0-4.0-0.0-1.0","P_76e9938d35766a572c6ffa85c5605204cb461d529c7fcde090d2be5769b23ef3","6975d475053a04ec2a824d54","6975d5a7604ee2dc7b66e285","6","[[0.22736964714484262,1.4389615966943733e-11,0,0.20984759685851753,0.06520404977486319,0.4975787062073871],[7.505216870414609e-13,1.4258841105232542e-11,0.9882196383546002,0.011780361555829953,5.905431977191516e-11,1.550626783568228e-11],[0.2273234356477396,1.4382488357004985e-11,0,0.20981619168212484,0.06519783227405394,0.49766254038169905],[0.27410027860516395,1.4381596613135696e-11,0.011768424314658198,0.21370829276791165,0.4956618083854289,0.004761195912455649],[0.004151376708677999,0.8541519975946235,0,0.14169662567971403,1.363513216867255e-12,1.562112260929659e-11],[0.26705763578310293,0.14585056634172525,0,0.21315316928175454,0.3739386285926206,7.966607020055105e-13]]","[1.7164586615480488,0.09237731181353706,1.7163490803009984,1.6016287006430234,0.6265709654819551,1.9197818344737418]","[2,5,3,4,1,2,0,3,0,3,4,3,4,1,2,0,5,0,4,1,2,0,5,4,1,2,0,3,4,1,2,5,4,3,4,1,2,5,0,5,0,0,5,4,1,2,5,3,3,3,0,0,5,1,2,3,0,5,0,4,1,2,5,4,1,2,3,4,1,2,0,0,5,4,1,2,5,0,3,3,3,0,5,0,0,0,5,4,3,0,0,3,4,1,2,5,4,1,2,5,4,3,4,3,4,1,2,5,1,2,0,0,3,4,1,2,0,3,4,3,4,1,2,5,4,1,2,3,0,3,3,3,4,1,2,3,3,4,1,2,5,4,1,2,0,3,0,5,4,3,4,1,2,5,3,0,5,0,0,5,0,5,4,1,2,5,3,4,1,2,4,1,2,5,0,3,4,1,2,5,4,3,4,1,2,5,0,0,5,0,3,4,1,2,5,4,1,2,5,4,1,2,5,1,2,0,0,5,4,1,2,5,3,4,3,4,1,2,5,3,4,1,2,5,1,2,5,4,1,2,0,5,4,1,2,5,4,1,2,5,1,2,0,3,0,5,1,2,3,3,4,1,2,5,0,5,3,4,1,2,5,4,1,2,0,5,1,2,0,4,1,2,5,1,2,3,4,1,2,5,4,1,2,5,0,5,1,2,5,0,5,1,2,0,0,5,4,1,2,5,0,0,3,4,3,4,1,2,5,4,1,2,0,5,4,3,4,3,3,4,1,2,4,1,3,0,5,4,1,3,3,3,0,5,4,1,2,5,1,2,0,0,0,0,5,4,1,2,4,1,2,3,4,3,4,3,3,0,0,3,4,1,2,3,3,4,1,2,5,0,3,0,3,3,4,1,2,3,4,1,2,5,4,1,2,3,4,1,2,3,4,1,2,5,0,5,3,3,0,0,3,4,3,0,3,0,0,5,0,5,3,4,1,2,0,3,4,1,2,3]","60","420","12","null","","<div class=""feedback-message""><div class=""feedback-correct"">✓</div></div><div class=""stimulus-container""><div class=""position-wrapper""><div class=""key-label"">S</div><div class=""position-box "" data-position=""0""></div></div><div class=""position-wrapper""><div class=""key-label"">D</div><div class=""position-box "" data-position=""1""></div></div><div class=""position-wrapper""><div class=""key-label"">F</div><div class=""position-box "" data-position=""2""></div></div><div class=""position-wrapper""><div class=""key-label"">J</div><div class=""position-box "" data-position=""3""></div></div><div class=""position-wrapper""><div class=""key-label"">K</div><div class=""position-box "" data-position=""4""></div></div><div class=""position-wrapper""><div class=""key-label"">L</div><div class=""position-box active"" data-position=""5""></div></div></div><div class=""finger-diagram-container"">
			<img src=""assets/finger-diagrams/finger-diagram-6pos.png"" alt=""Finger position guide"" class=""finger-diagram"" />
		</div>","null","","","","","","","",""
"","","","","","practice","rsi","html-keyboard-response","8","40762","0.0-4.0-1.0","P_76e9938d35766a572c6ffa85c5605204cb461d529c7fcde090d2be5769b23ef3","6975d475053a04ec2a824d54","6975d5a7604ee2dc7b66e285","6","[[0.22736964714484262,1.4389615966943733e-11,0,0.20984759685851753,0.06520404977486319,0.4975787062073871],[7.505216870414609e-13,1.4258841105232542e-11,0.9882196383546002,0.011780361555829953,5.905431977191516e-11,1.550626783568228e-11],[0.2273234356477396,1.4382488357004985e-11,0,0.20981619168212484,0.06519783227405394,0.49766254038169905],[0.27410027860516395,1.4381596613135696e-11,0.011768424314658198,0.21370829276791165,0.4956618083854289,0.004761195912455649],[0.004151376708677999,0.8541519975946235,0,0.14169662567971403,1.363513216867255e-12,1.562112260929659e-11],[0.26705763578310293,0.14585056634172525,0,0.21315316928175454,0.3739386285926206,7.966607020055105e-13]]","[1.7164586615480488,0.09237731181353706,1.7163490803009984,1.6016287006430234,0.6265709654819551,1.9197818344737418]","[2,5,3,4,1,2,0,3,0,3,4,3,4,1,2,0,5,0,4,1,2,0,5,4,1,2,0,3,4,1,2,5,4,3,4,1,2,5,0,5,0,0,5,4,1,2,5,3,3,3,0,0,5,1,2,3,0,5,0,4,1,2,5,4,1,2,3,4,1,2,0,0,5,4,1,2,5,0,3,3,3,0,5,0,0,0,5,4,3,0,0,3,4,1,2,5,4,1,2,5,4,3,4,3,4,1,2,5,1,2,0,0,3,4,1,2,0,3,4,3,4,1,2,5,4,1,2,3,0,3,3,3,4,1,2,3,3,4,1,2,5,4,1,2,0,3,0,5,4,3,4,1,2,5,3,0,5,0,0,5,0,5,4,1,2,5,3,4,1,2,4,1,2,5,0,3,4,1,2,5,4,3,4,1,2,5,0,0,5,0,3,4,1,2,5,4,1,2,5,4,1,2,5,1,2,0,0,5,4,1,2,5,3,4,3,4,1,2,5,3,4,1,2,5,1,2,5,4,1,2,0,5,4,1,2,5,4,1,2,5,1,2,0,3,0,5,1,2,3,3,4,1,2,5,0,5,3,4,1,2,5,4,1,2,0,5,1,2,0,4,1,2,5,1,2,3,4,1,2,5,4,1,2,5,0,5,1,2,5,0,5,1,2,0,0,5,4,1,2,5,0,0,3,4,3,4,1,2,5,4,1,2,0,5,4,3,4,3,3,4,1,2,4,1,3,0,5,4,1,3,3,3,0,5,4,1,2,5,1,2,0,0,0,0,5,4,1,2,4,1,2,3,4,3,4,3,3,0,0,3,4,1,2,3,3,4,1,2,5,0,3,0,3,3,4,1,2,3,4,1,2,5,4,1,2,3,4,1,2,3,4,1,2,5,0,5,3,3,0,0,3,4,3,0,3,0,0,5,0,5,3,4,1,2,0,3,4,1,2,3]","60","420","12","null","","<div class=""feedback-message""></div><div class=""stimulus-container""><div class=""position-wrapper""><div class=""key-label"">S</div><div class=""position-box "" data-position=""0""></div></div><div class=""position-wrapper""><div class=""key-label"">D</div><div class=""position-box "" data-position=""1""></div></div><div class=""position-wrapper""><div class=""key-label"">F</div><div class=""position-box "" data-position=""2""></div></div><div class=""position-wrapper""><div class=""key-label"">J</div><div class=""position-box "" data-position=""3""></div></div><div class=""position-wrapper""><div class=""key-label"">K</div><div class=""position-box "" data-position=""4""></div></div><div class=""position-wrapper""><div class=""key-label"">L</div><div class=""position-box "" data-position=""5""></div></div></div><div class=""finger-diagram-container"">
			<img src=""assets/finger-diagrams/finger-diagram-6pos.png"" alt=""Finger position guide"" class=""finger-diagram"" />
		</div>","null","","","","","","","",""
"","","","","","practice","stimulus","html-keyboard-response","9","41402","0.0-5.0-0.0-0.0","P_76e9938d35766a572c6ffa85c5605204cb461d529c7fcde090d2be5769b23ef3","6975d475053a04ec2a824d54","6975d5a7604ee2dc7b66e285","6","[[0.22736964714484262,1.4389615966943733e-11,0,0.20984759685851753,0.06520404977486319,0.4975787062073871],[7.505216870414609e-13,1.4258841105232542e-11,0.9882196383546002,0.011780361555829953,5.905431977191516e-11,1.550626783568228e-11],[0.2273234356477396,1.4382488357004985e-11,0,0.20981619168212484,0.06519783227405394,0.49766254038169905],[0.27410027860516395,1.4381596613135696e-11,0.011768424314658198,0.21370829276791165,0.4956618083854289,0.004761195912455649],[0.004151376708677999,0.8541519975946235,0,0.14169662567971403,1.363513216867255e-12,1.562112260929659e-11],[0.26705763578310293,0.14585056634172525,0,0.21315316928175454,0.3739386285926206,7.966607020055105e-13]]","[1.7164586615480488,0.09237731181353706,1.7163490803009984,1.6016287006430234,0.6265709654819551,1.9197818344737418]","[2,5,3,4,1,2,0,3,0,3,4,3,4,1,2,0,5,0,4,1,2,0,5,4,1,2,0,3,4,1,2,5,4,3,4,1,2,5,0,5,0,0,5,4,1,2,5,3,3,3,0,0,5,1,2,3,0,5,0,4,1,2,5,4,1,2,3,4,1,2,0,0,5,4,1,2,5,0,3,3,3,0,5,0,0,0,5,4,3,0,0,3,4,1,2,5,4,1,2,5,4,3,4,3,4,1,2,5,1,2,0,0,3,4,1,2,0,3,4,3,4,1,2,5,4,1,2,3,0,3,3,3,4,1,2,3,3,4,1,2,5,4,1,2,0,3,0,5,4,3,4,1,2,5,3,0,5,0,0,5,0,5,4,1,2,5,3,4,1,2,4,1,2,5,0,3,4,1,2,5,4,3,4,1,2,5,0,0,5,0,3,4,1,2,5,4,1,2,5,4,1,2,5,1,2,0,0,5,4,1,2,5,3,4,3,4,1,2,5,3,4,1,2,5,1,2,5,4,1,2,0,5,4,1,2,5,4,1,2,5,1,2,0,3,0,5,1,2,3,3,4,1,2,5,0,5,3,4,1,2,5,4,1,2,0,5,1,2,0,4,1,2,5,1,2,3,4,1,2,5,4,1,2,5,0,5,1,2,5,0,5,1,2,0,0,5,4,1,2,5,0,0,3,4,3,4,1,2,5,4,1,2,0,5,4,3,4,3,3,4,1,2,4,1,3,0,5,4,1,3,3,3,0,5,4,1,2,5,1,2,0,0,0,0,5,4,1,2,4,1,2,3,4,3,4,3,3,0,0,3,4,1,2,3,3,4,1,2,5,0,3,0,3,3,4,1,2,3,4,1,2,5,4,1,2,3,4,1,2,3,4,1,2,5,0,5,3,3,0,0,3,4,3,0,3,0,0,5,0,5,3,4,1,2,0,3,4,1,2,3]","60","420","12","638","","<div class=""feedback-message""></div><div class=""stimulus-container""><div class=""position-wrapper""><div class=""key-label"">S</div><div class=""position-box "" data-position=""0""></div></div><div class=""position-wrapper""><div class=""key-label"">D</div><div class=""position-box active"" data-position=""1""></div></div><div class=""position-wrapper""><div class=""key-label"">F</div><div class=""position-box "" data-position=""2""></div></div><div class=""position-wrapper""><div class=""key-label"">J</div><div class=""position-box "" data-position=""3""></div></div><div class=""position-wrapper""><div class=""key-label"">K</div><div class=""position-box "" data-position=""4""></div></div><div class=""position-wrapper""><div class=""key-label"">L</div><div class=""position-box "" data-position=""5""></div></div></div><div class=""finger-diagram-container"">
			<img src=""assets/finger-diagrams/finger-diagram-6pos.png"" alt=""Finger position guide"" class=""finger-diagram"" />
		</div>","d","1","d","true","","","","",""
"","","","","","practice","feedback","html-keyboard-response","10","41604","0.0-5.0-0.0-1.0","P_76e9938d35766a572c6ffa85c5605204cb461d529c7fcde090d2be5769b23ef3","6975d475053a04ec2a824d54","6975d5a7604ee2dc7b66e285","6","[[0.22736964714484262,1.4389615966943733e-11,0,0.20984759685851753,0.06520404977486319,0.4975787062073871],[7.505216870414609e-13,1.4258841105232542e-11,0.9882196383546002,0.011780361555829953,5.905431977191516e-11,1.550626783568228e-11],[0.2273234356477396,1.4382488357004985e-11,0,0.20981619168212484,0.06519783227405394,0.49766254038169905],[0.27410027860516395,1.4381596613135696e-11,0.011768424314658198,0.21370829276791165,0.4956618083854289,0.004761195912455649],[0.004151376708677999,0.8541519975946235,0,0.14169662567971403,1.363513216867255e-12,1.562112260929659e-11],[0.26705763578310293,0.14585056634172525,0,0.21315316928175454,0.3739386285926206,7.966607020055105e-13]]","[1.7164586615480488,0.09237731181353706,1.7163490803009984,1.6016287006430234,0.6265709654819551,1.9197818344737418]","[2,5,3,4,1,2,0,3,0,3,4,3,4,1,2,0,5,0,4,1,2,0,5,4,1,2,0,3,4,1,2,5,4,3,4,1,2,5,0,5,0,0,5,4,1,2,5,3,3,3,0,0,5,1,2,3,0,5,0,4,1,2,5,4,1,2,3,4,1,2,0,0,5,4,1,2,5,0,3,3,3,0,5,0,0,0,5,4,3,0,0,3,4,1,2,5,4,1,2,5,4,3,4,3,4,1,2,5,1,2,0,0,3,4,1,2,0,3,4,3,4,1,2,5,4,1,2,3,0,3,3,3,4,1,2,3,3,4,1,2,5,4,1,2,0,3,0,5,4,3,4,1,2,5,3,0,5,0,0,5,0,5,4,1,2,5,3,4,1,2,4,1,2,5,0,3,4,1,2,5,4,3,4,1,2,5,0,0,5,0,3,4,1,2,5,4,1,2,5,4,1,2,5,1,2,0,0,5,4,1,2,5,3,4,3,4,1,2,5,3,4,1,2,5,1,2,5,4,1,2,0,5,4,1,2,5,4,1,2,5,1,2,0,3,0,5,1,2,3,3,4,1,2,5,0,5,3,4,1,2,5,4,1,2,0,5,1,2,0,4,1,2,5,1,2,3,4,1,2,5,4,1,2,5,0,5,1,2,5,0,5,1,2,0,0,5,4,1,2,5,0,0,3,4,3,4,1,2,5,4,1,2,0,5,4,3,4,3,3,4,1,2,4,1,3,0,5,4,1,3,3,3,0,5,4,1,2,5,1,2,0,0,0,0,5,4,1,2,4,1,2,3,4,3,4,3,3,0,0,3,4,1,2,3,3,4,1,2,5,0,3,0,3,3,4,1,2,3,4,1,2,5,4,1,2,3,4,1,2,3,4,1,2,5,0,5,3,3,0,0,3,4,3,0,3,0,0,5,0,5,3,4,1,2,0,3,4,1,2,3]","60","420","12","null","","<div class=""feedback-message""><div class=""feedback-correct"">✓</div></div><div class=""stimulus-container""><div class=""position-wrapper""><div class=""key-label"">S</div><div class=""position-box "" data-position=""0""></div></div><div class=""position-wrapper""><div class=""key-label"">D</div><div class=""position-box active"" data-position=""1""></div></div><div class=""position-wrapper""><div class=""key-label"">F</div><div class=""position-box "" data-position=""2""></div></div><div class=""position-wrapper""><div class=""key-label"">J</div><div class=""position-box "" data-position=""3""></div></div><div class=""position-wrapper""><div class=""key-label"">K</div><div class=""position-box "" data-position=""4""></div></div><div class=""position-wrapper""><div class=""key-label"">L</div><div class=""position-box "" data-position=""5""></div></div></div><div class=""finger-diagram-container"">
			<img src=""assets/finger-diagrams/finger-diagram-6pos.png"" alt=""Finger position guide"" class=""finger-diagram"" />
		</div>","null","","","","","","","",""
"","","","","","practice","rsi","html-keyboard-response","11","41726","0.0-5.0-1.0","P_76e9938d35766a572c6ffa85c5605204cb461d529c7fcde090d2be5769b23ef3","6975d475053a04ec2a824d54","6975d5a7604ee2dc7b66e285","6","[[0.22736964714484262,1.4389615966943733e-11,0,0.20984759685851753,0.06520404977486319,0.4975787062073871],[7.505216870414609e-13,1.4258841105232542e-11,0.9882196383546002,0.011780361555829953,5.905431977191516e-11,1.550626783568228e-11],[0.2273234356477396,1.4382488357004985e-11,0,0.20981619168212484,0.06519783227405394,0.49766254038169905],[0.27410027860516395,1.4381596613135696e-11,0.011768424314658198,0.21370829276791165,0.4956618083854289,0.004761195912455649],[0.004151376708677999,0.8541519975946235,0,0.14169662567971403,1.363513216867255e-12,1.562112260929659e-11],[0.26705763578310293,0.14585056634172525,0,0.21315316928175454,0.3739386285926206,7.966607020055105e-13]]","[1.7164586615480488,0.09237731181353706,1.7163490803009984,1.6016287006430234,0.6265709654819551,1.9197818344737418]","[2,5,3,4,1,2,0,3,0,3,4,3,4,1,2,0,5,0,4,1,2,0,5,4,1,2,0,3,4,1,2,5,4,3,4,1,2,5,0,5,0,0,5,4,1,2,5,3,3,3,0,0,5,1,2,3,0,5,0,4,1,2,5,4,1,2,3,4,1,2,0,0,5,4,1,2,5,0,3,3,3,0,5,0,0,0,5,4,3,0,0,3,4,1,2,5,4,1,2,5,4,3,4,3,4,1,2,5,1,2,0,0,3,4,1,2,0,3,4,3,4,1,2,5,4,1,2,3,0,3,3,3,4,1,2,3,3,4,1,2,5,4,1,2,0,3,0,5,4,3,4,1,2,5,3,0,5,0,0,5,0,5,4,1,2,5,3,4,1,2,4,1,2,5,0,3,4,1,2,5,4,3,4,1,2,5,0,0,5,0,3,4,1,2,5,4,1,2,5,4,1,2,5,1,2,0,0,5,4,1,2,5,3,4,3,4,1,2,5,3,4,1,2,5,1,2,5,4,1,2,0,5,4,1,2,5,4,1,2,5,1,2,0,3,0,5,1,2,3,3,4,1,2,5,0,5,3,4,1,2,5,4,1,2,0,5,1,2,0,4,1,2,5,1,2,3,4,1,2,5,4,1,2,5,0,5,1,2,5,0,5,1,2,0,0,5,4,1,2,5,0,0,3,4,3,4,1,2,5,4,1,2,0,5,4,3,4,3,3,4,1,2,4,1,3,0,5,4,1,3,3,3,0,5,4,1,2,5,1,2,0,0,0,0,5,4,1,2,4,1,2,3,4,3,4,3,3,0,0,3,4,1,2,3,3,4,1,2,5,0,3,0,3,3,4,1,2,3,4,1,2,5,4,1,2,3,4,1,2,3,4,1,2,5,0,5,3,3,0,0,3,4,3,0,3,0,0,5,0,5,3,4,1,2,0,3,4,1,2,3]","60","420","12","null","","<div class=""feedback-message""></div><div class=""stimulus-container""><div class=""position-wrapper""><div class=""key-label"">S</div><div class=""position-box "" data-position=""0""></div></div><div class=""position-wrapper""><div class=""key-label"">D</div><div class=""position-box "" data-position=""1""></div></div><div class=""position-wrapper""><div class=""key-label"">F</div><div class=""position-box "" data-position=""2""></div></div><div class=""position-wrapper""><div class=""key-label"">J</div><div class=""position-box "" data-position=""3""></div></div><div class=""position-wrapper""><div class=""key-label"">K</div><div class=""position-box "" data-position=""4""></div></div><div class=""position-wrapper""><div class=""key-label"">L</div><div class=""position-box "" data-position=""5""></div></div></div><div class=""finger-diagram-container"">
			<img src=""assets/finger-diagrams/finger-diagram-6pos.png"" alt=""Finger position guide"" class=""finger-diagram"" />
		</div>","null","","","","","","","",""
"","","","","","practice","stimulus","html-keyboard-response","12","42342","0.0-6.0-0.0-0.0","P_76e9938d35766a572c6ffa85c5605204cb461d529c7fcde090d2be5769b23ef3","6975d475053a04ec2a824d54","6975d5a7604ee2dc7b66e285","6","[[0.22736964714484262,1.4389615966943733e-11,0,0.20984759685851753,0.06520404977486319,0.4975787062073871],[7.505216870414609e-13,1.4258841105232542e-11,0.9882196383546002,0.011780361555829953,5.905431977191516e-11,1.550626783568228e-11],[0.2273234356477396,1.4382488357004985e-11,0,0.20981619168212484,0.06519783227405394,0.49766254038169905],[0.27410027860516395,1.4381596613135696e-11,0.011768424314658198,0.21370829276791165,0.4956618083854289,0.004761195912455649],[0.004151376708677999,0.8541519975946235,0,0.14169662567971403,1.363513216867255e-12,1.562112260929659e-11],[0.26705763578310293,0.14585056634172525,0,0.21315316928175454,0.3739386285926206,7.966607020055105e-13]]","[1.7164586615480488,0.09237731181353706,1.7163490803009984,1.6016287006430234,0.6265709654819551,1.9197818344737418]","[2,5,3,4,1,2,0,3,0,3,4,3,4,1,2,0,5,0,4,1,2,0,5,4,1,2,0,3,4,1,2,5,4,3,4,1,2,5,0,5,0,0,5,4,1,2,5,3,3,3,0,0,5,1,2,3,0,5,0,4,1,2,5,4,1,2,3,4,1,2,0,0,5,4,1,2,5,0,3,3,3,0,5,0,0,0,5,4,3,0,0,3,4,1,2,5,4,1,2,5,4,3,4,3,4,1,2,5,1,2,0,0,3,4,1,2,0,3,4,3,4,1,2,5,4,1,2,3,0,3,3,3,4,1,2,3,3,4,1,2,5,4,1,2,0,3,0,5,4,3,4,1,2,5,3,0,5,0,0,5,0,5,4,1,2,5,3,4,1,2,4,1,2,5,0,3,4,1,2,5,4,3,4,1,2,5,0,0,5,0,3,4,1,2,5,4,1,2,5,4,1,2,5,1,2,0,0,5,4,1,2,5,3,4,3,4,1,2,5,3,4,1,2,5,1,2,5,4,1,2,0,5,4,1,2,5,4,1,2,5,1,2,0,3,0,5,1,2,3,3,4,1,2,5,0,5,3,4,1,2,5,4,1,2,0,5,1,2,0,4,1,2,5,1,2,3,4,1,2,5,4,1,2,5,0,5,1,2,5,0,5,1,2,0,0,5,4,1,2,5,0,0,3,4,3,4,1,2,5,4,1,2,0,5,4,3,4,3,3,4,1,2,4,1,3,0,5,4,1,3,3,3,0,5,4,1,2,5,1,2,0,0,0,0,5,4,1,2,4,1,2,3,4,3,4,3,3,0,0,3,4,1,2,3,3,4,1,2,5,0,3,0,3,3,4,1,2,3,4,1,2,5,4,1,2,3,4,1,2,3,4,1,2,5,0,5,3,3,0,0,3,4,3,0,3,0,0,5,0,5,3,4,1,2,0,3,4,1,2,3]","60","420","12","614","","<div class=""feedback-message""></div><div class=""stimulus-container""><div class=""position-wrapper""><div class=""key-label"">S</div><div class=""position-box "" data-position=""0""></div></div><div class=""position-wrapper""><div class=""key-label"">D</div><div class=""position-box "" data-position=""1""></div></div><div class=""position-wrapper""><div class=""key-label"">F</div><div class=""position-box active"" data-position=""2""></div></div><div class=""position-wrapper""><div class=""key-label"">J</div><div class=""position-box "" data-position=""3""></div></div><div class=""position-wrapper""><div class=""key-label"">K</div><div class=""position-box "" data-position=""4""></div></div><div class=""position-wrapper""><div class=""key-label"">L</div><div class=""position-box "" data-position=""5""></div></div></div><div class=""finger-diagram-container"">
			<img src=""assets/finger-diagrams/finger-diagram-6pos.png"" alt=""Finger position guide"" class=""finger-diagram"" />
		</div>","f","2","f","true","","","","",""
"","","","","","practice","feedback","html-keyboard-response","13","42544","0.0-6.0-0.0-1.0","P_76e9938d35766a572c6ffa85c5605204cb461d529c7fcde090d2be5769b23ef3","6975d475053a04ec2a824d54","6975d5a7604ee2dc7b66e285","6","[[0.22736964714484262,1.4389615966943733e-11,0,0.20984759685851753,0.06520404977486319,0.4975787062073871],[7.505216870414609e-13,1.4258841105232542e-11,0.9882196383546002,0.011780361555829953,5.905431977191516e-11,1.550626783568228e-11],[0.2273234356477396,1.4382488357004985e-11,0,0.20981619168212484,0.06519783227405394,0.49766254038169905],[0.27410027860516395,1.4381596613135696e-11,0.011768424314658198,0.21370829276791165,0.4956618083854289,0.004761195912455649],[0.004151376708677999,0.8541519975946235,0,0.14169662567971403,1.363513216867255e-12,1.562112260929659e-11],[0.26705763578310293,0.14585056634172525,0,0.21315316928175454,0.3739386285926206,7.966607020055105e-13]]","[1.7164586615480488,0.09237731181353706,1.7163490803009984,1.6016287006430234,0.6265709654819551,1.9197818344737418]","[2,5,3,4,1,2,0,3,0,3,4,3,4,1,2,0,5,0,4,1,2,0,5,4,1,2,0,3,4,1,2,5,4,3,4,1,2,5,0,5,0,0,5,4,1,2,5,3,3,3,0,0,5,1,2,3,0,5,0,4,1,2,5,4,1,2,3,4,1,2,0,0,5,4,1,2,5,0,3,3,3,0,5,0,0,0,5,4,3,0,0,3,4,1,2,5,4,1,2,5,4,3,4,3,4,1,2,5,1,2,0,0,3,4,1,2,0,3,4,3,4,1,2,5,4,1,2,3,0,3,3,3,4,1,2,3,3,4,1,2,5,4,1,2,0,3,0,5,4,3,4,1,2,5,3,0,5,0,0,5,0,5,4,1,2,5,3,4,1,2,4,1,2,5,0,3,4,1,2,5,4,3,4,1,2,5,0,0,5,0,3,4,1,2,5,4,1,2,5,4,1,2,5,1,2,0,0,5,4,1,2,5,3,4,3,4,1,2,5,3,4,1,2,5,1,2,5,4,1,2,0,5,4,1,2,5,4,1,2,5,1,2,0,3,0,5,1,2,3,3,4,1,2,5,0,5,3,4,1,2,5,4,1,2,0,5,1,2,0,4,1,2,5,1,2,3,4,1,2,5,4,1,2,5,0,5,1,2,5,0,5,1,2,0,0,5,4,1,2,5,0,0,3,4,3,4,1,2,5,4,1,2,0,5,4,3,4,3,3,4,1,2,4,1,3,0,5,4,1,3,3,3,0,5,4,1,2,5,1,2,0,0,0,0,5,4,1,2,4,1,2,3,4,3,4,3,3,0,0,3,4,1,2,3,3,4,1,2,5,0,3,0,3,3,4,1,2,3,4,1,2,5,4,1,2,3,4,1,2,3,4,1,2,5,0,5,3,3,0,0,3,4,3,0,3,0,0,5,0,5,3,4,1,2,0,3,4,1,2,3]","60","420","12","null","","<div class=""feedback-message""><div class=""feedback-correct"">✓</div></div><div class=""stimulus-container""><div class=""position-wrapper""><div class=""key-label"">S</div><div class=""position-box "" data-position=""0""></div></div><div class=""position-wrapper""><div class=""key-label"">D</div><div class=""position-box "" data-position=""1""></div></div><div class=""position-wrapper""><div class=""key-label"">F</div><div class=""position-box active"" data-position=""2""></div></div><div class=""position-wrapper""><div class=""key-label"">J</div><div class=""position-box "" data-position=""3""></div></div><div class=""position-wrapper""><div class=""key-label"">K</div><div class=""position-box "" data-position=""4""></div></div><div class=""position-wrapper""><div class=""key-label"">L</div><div class=""position-box "" data-position=""5""></div></div></div><div class=""finger-diagram-container"">
			<img src=""assets/finger-diagrams/finger-diagram-6pos.png"" alt=""Finger position guide"" class=""finger-diagram"" />
		</div>","null","","","","","","","",""
"","","","","","practice","rsi","html-keyboard-response","14","42666","0.0-6.0-1.0","P_76e9938d35766a572c6ffa85c5605204cb461d529c7fcde090d2be5769b23ef3","6975d475053a04ec2a824d54","6975d5a7604ee2dc7b66e285","6","[[0.22736964714484262,1.4389615966943733e-11,0,0.20984759685851753,0.06520404977486319,0.4975787062073871],[7.505216870414609e-13,1.4258841105232542e-11,0.9882196383546002,0.011780361555829953,5.905431977191516e-11,1.550626783568228e-11],[0.2273234356477396,1.4382488357004985e-11,0,0.20981619168212484,0.06519783227405394,0.49766254038169905],[0.27410027860516395,1.4381596613135696e-11,0.011768424314658198,0.21370829276791165,0.4956618083854289,0.004761195912455649],[0.004151376708677999,0.8541519975946235,0,0.14169662567971403,1.363513216867255e-12,1.562112260929659e-11],[0.26705763578310293,0.14585056634172525,0,0.21315316928175454,0.3739386285926206,7.966607020055105e-13]]","[1.7164586615480488,0.09237731181353706,1.7163490803009984,1.6016287006430234,0.6265709654819551,1.9197818344737418]","[2,5,3,4,1,2,0,3,0,3,4,3,4,1,2,0,5,0,4,1,2,0,5,4,1,2,0,3,4,1,2,5,4,3,4,1,2,5,0,5,0,0,5,4,1,2,5,3,3,3,0,0,5,1,2,3,0,5,0,4,1,2,5,4,1,2,3,4,1,2,0,0,5,4,1,2,5,0,3,3,3,0,5,0,0,0,5,4,3,0,0,3,4,1,2,5,4,1,2,5,4,3,4,3,4,1,2,5,1,2,0,0,3,4,1,2,0,3,4,3,4,1,2,5,4,1,2,3,0,3,3,3,4,1,2,3,3,4,1,2,5,4,1,2,0,3,0,5,4,3,4,1,2,5,3,0,5,0,0,5,0,5,4,1,2,5,3,4,1,2,4,1,2,5,0,3,4,1,2,5,4,3,4,1,2,5,0,0,5,0,3,4,1,2,5,4,1,2,5,4,1,2,5,1,2,0,0,5,4,1,2,5,3,4,3,4,1,2,5,3,4,1,2,5,1,2,5,4,1,2,0,5,4,1,2,5,4,1,2,5,1,2,0,3,0,5,1,2,3,3,4,1,2,5,0,5,3,4,1,2,5,4,1,2,0,5,1,2,0,4,1,2,5,1,2,3,4,1,2,5,4,1,2,5,0,5,1,2,5,0,5,1,2,0,0,5,4,1,2,5,0,0,3,4,3,4,1,2,5,4,1,2,0,5,4,3,4,3,3,4,1,2,4,1,3,0,5,4,1,3,3,3,0,5,4,1,2,5,1,2,0,0,0,0,5,4,1,2,4,1,2,3,4,3,4,3,3,0,0,3,4,1,2,3,3,4,1,2,5,0,3,0,3,3,4,1,2,3,4,1,2,5,4,1,2,3,4,1,2,3,4,1,2,5,0,5,3,3,0,0,3,4,3,0,3,0,0,5,0,5,3,4,1,2,0,3,4,1,2,3]","60","420","12","null","","<div class=""feedback-message""></div><div class=""stimulus-container""><div class=""position-wrapper""><div class=""key-label"">S</div><div class=""position-box "" data-position=""0""></div></div><div class=""position-wrapper""><div class=""key-label"">D</div><div class=""position-box "" data-position=""1""></div></div><div class=""position-wrapper""><div class=""key-label"">F</div><div class=""position-box "" data-position=""2""></div></div><div class=""position-wrapper""><div class=""key-label"">J</div><div class=""position-box "" data-position=""3""></div></div><div class=""position-wrapper""><div class=""key-label"">K</div><div class=""position-box "" data-position=""4""></div></div><div class=""position-wrapper""><div class=""key-label"">L</div><div class=""position-box "" data-position=""5""></div></div></div><div class=""finger-diagram-container"">
			<img src=""assets/finger-diagrams/finger-diagram-6pos.png"" alt=""Finger position guide"" class=""finger-diagram"" />
		</div>","null","","","","","","","",""
"","","","","","practice","stimulus","html-keyboard-response","15","43235","0.0-7.0-0.0-0.0","P_76e9938d35766a572c6ffa85c5605204cb461d529c7fcde090d2be5769b23ef3","6975d475053a04ec2a824d54","6975d5a7604ee2dc7b66e285","6","[[0.22736964714484262,1.4389615966943733e-11,0,0.20984759685851753,0.06520404977486319,0.4975787062073871],[7.505216870414609e-13,1.4258841105232542e-11,0.9882196383546002,0.011780361555829953,5.905431977191516e-11,1.550626783568228e-11],[0.2273234356477396,1.4382488357004985e-11,0,0.20981619168212484,0.06519783227405394,0.49766254038169905],[0.27410027860516395,1.4381596613135696e-11,0.011768424314658198,0.21370829276791165,0.4956618083854289,0.004761195912455649],[0.004151376708677999,0.8541519975946235,0,0.14169662567971403,1.363513216867255e-12,1.562112260929659e-11],[0.26705763578310293,0.14585056634172525,0,0.21315316928175454,0.3739386285926206,7.966607020055105e-13]]","[1.7164586615480488,0.09237731181353706,1.7163490803009984,1.6016287006430234,0.6265709654819551,1.9197818344737418]","[2,5,3,4,1,2,0,3,0,3,4,3,4,1,2,0,5,0,4,1,2,0,5,4,1,2,0,3,4,1,2,5,4,3,4,1,2,5,0,5,0,0,5,4,1,2,5,3,3,3,0,0,5,1,2,3,0,5,0,4,1,2,5,4,1,2,3,4,1,2,0,0,5,4,1,2,5,0,3,3,3,0,5,0,0,0,5,4,3,0,0,3,4,1,2,5,4,1,2,5,4,3,4,3,4,1,2,5,1,2,0,0,3,4,1,2,0,3,4,3,4,1,2,5,4,1,2,3,0,3,3,3,4,1,2,3,3,4,1,2,5,4,1,2,0,3,0,5,4,3,4,1,2,5,3,0,5,0,0,5,0,5,4,1,2,5,3,4,1,2,4,1,2,5,0,3,4,1,2,5,4,3,4,1,2,5,0,0,5,0,3,4,1,2,5,4,1,2,5,4,1,2,5,1,2,0,0,5,4,1,2,5,3,4,3,4,1,2,5,3,4,1,2,5,1,2,5,4,1,2,0,5,4,1,2,5,4,1,2,5,1,2,0,3,0,5,1,2,3,3,4,1,2,5,0,5,3,4,1,2,5,4,1,2,0,5,1,2,0,4,1,2,5,1,2,3,4,1,2,5,4,1,2,5,0,5,1,2,5,0,5,1,2,0,0,5,4,1,2,5,0,0,3,4,3,4,1,2,5,4,1,2,0,5,4,3,4,3,3,4,1,2,4,1,3,0,5,4,1,3,3,3,0,5,4,1,2,5,1,2,0,0,0,0,5,4,1,2,4,1,2,3,4,3,4,3,3,0,0,3,4,1,2,3,3,4,1,2,5,0,3,0,3,3,4,1,2,3,4,1,2,5,4,1,2,3,4,1,2,3,4,1,2,5,0,5,3,3,0,0,3,4,3,0,3,0,0,5,0,5,3,4,1,2,0,3,4,1,2,3]","60","420","12","567","","<div class=""feedback-message""></div><div class=""stimulus-container""><div class=""position-wrapper""><div class=""key-label"">S</div><div class=""position-box active"" data-position=""0""></div></div><div class=""position-wrapper""><div class=""key-label"">D</div><div class=""position-box "" data-position=""1""></div></div><div class=""position-wrapper""><div class=""key-label"">F</div><div class=""position-box "" data-position=""2""></div></div><div class=""position-wrapper""><div class=""key-label"">J</div><div class=""position-box "" data-position=""3""></div></div><div class=""position-wrapper""><div class=""key-label"">K</div><div class=""position-box "" data-position=""4""></div></div><div class=""position-wrapper""><div class=""key-label"">L</div><div class=""position-box "" data-position=""5""></div></div></div><div class=""finger-diagram-container"">
			<img src=""assets/finger-diagrams/finger-diagram-6pos.png"" alt=""Finger position guide"" class=""finger-diagram"" />
		</div>","s","0","s","true","","","","",""
"","","","","","practice","feedback","html-keyboard-response","16","43438","0.0-7.0-0.0-1.0","P_76e9938d35766a572c6ffa85c5605204cb461d529c7fcde090d2be5769b23ef3","6975d475053a04ec2a824d54","6975d5a7604ee2dc7b66e285","6","[[0.22736964714484262,1.4389615966943733e-11,0,0.20984759685851753,0.06520404977486319,0.4975787062073871],[7.505216870414609e-13,1.4258841105232542e-11,0.9882196383546002,0.011780361555829953,5.905431977191516e-11,1.550626783568228e-11],[0.2273234356477396,1.4382488357004985e-11,0,0.20981619168212484,0.06519783227405394,0.49766254038169905],[0.27410027860516395,1.4381596613135696e-11,0.011768424314658198,0.21370829276791165,0.4956618083854289,0.004761195912455649],[0.004151376708677999,0.8541519975946235,0,0.14169662567971403,1.363513216867255e-12,1.562112260929659e-11],[0.26705763578310293,0.14585056634172525,0,0.21315316928175454,0.3739386285926206,7.966607020055105e-13]]","[1.7164586615480488,0.09237731181353706,1.7163490803009984,1.6016287006430234,0.6265709654819551,1.9197818344737418]","[2,5,3,4,1,2,0,3,0,3,4,3,4,1,2,0,5,0,4,1,2,0,5,4,1,2,0,3,4,1,2,5,4,3,4,1,2,5,0,5,0,0,5,4,1,2,5,3,3,3,0,0,5,1,2,3,0,5,0,4,1,2,5,4,1,2,3,4,1,2,0,0,5,4,1,2,5,0,3,3,3,0,5,0,0,0,5,4,3,0,0,3,4,1,2,5,4,1,2,5,4,3,4,3,4,1,2,5,1,2,0,0,3,4,1,2,0,3,4,3,4,1,2,5,4,1,2,3,0,3,3,3,4,1,2,3,3,4,1,2,5,4,1,2,0,3,0,5,4,3,4,1,2,5,3,0,5,0,0,5,0,5,4,1,2,5,3,4,1,2,4,1,2,5,0,3,4,1,2,5,4,3,4,1,2,5,0,0,5,0,3,4,1,2,5,4,1,2,5,4,1,2,5,1,2,0,0,5,4,1,2,5,3,4,3,4,1,2,5,3,4,1,2,5,1,2,5,4,1,2,0,5,4,1,2,5,4,1,2,5,1,2,0,3,0,5,1,2,3,3,4,1,2,5,0,5,3,4,1,2,5,4,1,2,0,5,1,2,0,4,1,2,5,1,2,3,4,1,2,5,4,1,2,5,0,5,1,2,5,0,5,1,2,0,0,5,4,1,2,5,0,0,3,4,3,4,1,2,5,4,1,2,0,5,4,3,4,3,3,4,1,2,4,1,3,0,5,4,1,3,3,3,0,5,4,1,2,5,1,2,0,0,0,0,5,4,1,2,4,1,2,3,4,3,4,3,3,0,0,3,4,1,2,3,3,4,1,2,5,0,3,0,3,3,4,1,2,3,4,1,2,5,4,1,2,3,4,1,2,3,4,1,2,5,0,5,3,3,0,0,3,4,3,0,3,0,0,5,0,5,3,4,1,2,0,3,4,1,2,3]","60","420","12","null","","<div class=""feedback-message""><div class=""feedback-correct"">✓</div></div><div class=""stimulus-container""><div class=""position-wrapper""><div class=""key-label"">S</div><div class=""position-box active"" data-position=""0""></div></div><div class=""position-wrapper""><div class=""key-label"">D</div><div class=""position-box "" data-position=""1""></div></div><div class=""position-wrapper""><div class=""key-label"">F</div><div class=""position-box "" data-position=""2""></div></div><div class=""position-wrapper""><div class=""key-label"">J</div><div class=""position-box "" data-position=""3""></div></div><div class=""position-wrapper""><div class=""key-label"">K</div><div class=""position-box "" data-position=""4""></div></div><div class=""position-wrapper""><div class=""key-label"">L</div><div class=""position-box "" data-position=""5""></div></div></div><div class=""finger-diagram-container"">
			<img src=""assets/finger-diagrams/finger-diagram-6pos.png"" alt=""Finger position guide"" class=""finger-diagram"" />
		</div>","null","","","","","","","",""
"","","","","","practice","rsi","html-keyboard-response","17","43560","0.0-7.0-1.0","P_76e9938d35766a572c6ffa85c5605204cb461d529c7fcde090d2be5769b23ef3","6975d475053a04ec2a824d54","6975d5a7604ee2dc7b66e285","6","[[0.22736964714484262,1.4389615966943733e-11,0,0.20984759685851753,0.06520404977486319,0.4975787062073871],[7.505216870414609e-13,1.4258841105232542e-11,0.9882196383546002,0.011780361555829953,5.905431977191516e-11,1.550626783568228e-11],[0.2273234356477396,1.4382488357004985e-11,0,0.20981619168212484,0.06519783227405394,0.49766254038169905],[0.27410027860516395,1.4381596613135696e-11,0.011768424314658198,0.21370829276791165,0.4956618083854289,0.004761195912455649],[0.004151376708677999,0.8541519975946235,0,0.14169662567971403,1.363513216867255e-12,1.562112260929659e-11],[0.26705763578310293,0.14585056634172525,0,0.21315316928175454,0.3739386285926206,7.966607020055105e-13]]","[1.7164586615480488,0.09237731181353706,1.7163490803009984,1.6016287006430234,0.6265709654819551,1.9197818344737418]","[2,5,3,4,1,2,0,3,0,3,4,3,4,1,2,0,5,0,4,1,2,0,5,4,1,2,0,3,4,1,2,5,4,3,4,1,2,5,0,5,0,0,5,4,1,2,5,3,3,3,0,0,5,1,2,3,0,5,0,4,1,2,5,4,1,2,3,4,1,2,0,0,5,4,1,2,5,0,3,3,3,0,5,0,0,0,5,4,3,0,0,3,4,1,2,5,4,1,2,5,4,3,4,3,4,1,2,5,1,2,0,0,3,4,1,2,0,3,4,3,4,1,2,5,4,1,2,3,0,3,3,3,4,1,2,3,3,4,1,2,5,4,1,2,0,3,0,5,4,3,4,1,2,5,3,0,5,0,0,5,0,5,4,1,2,5,3,4,1,2,4,1,2,5,0,3,4,1,2,5,4,3,4,1,2,5,0,0,5,0,3,4,1,2,5,4,1,2,5,4,1,2,5,1,2,0,0,5,4,1,2,5,3,4,3,4,1,2,5,3,4,1,2,5,1,2,5,4,1,2,0,5,4,1,2,5,4,1,2,5,1,2,0,3,0,5,1,2,3,3,4,1,2,5,0,5,3,4,1,2,5,4,1,2,0,5,1,2,0,4,1,2,5,1,2,3,4,1,2,5,4,1,2,5,0,5,1,2,5,0,5,1,2,0,0,5,4,1,2,5,0,0,3,4,3,4,1,2,5,4,1,2,0,5,4,3,4,3,3,4,1,2,4,1,3,0,5,4,1,3,3,3,0,5,4,1,2,5,1,2,0,0,0,0,5,4,1,2,4,1,2,3,4,3,4,3,3,0,0,3,4,1,2,3,3,4,1,2,5,0,3,0,3,3,4,1,2,3,4,1,2,5,4,1,2,3,4,1,2,3,4,1,2,5,0,5,3,3,0,0,3,4,3,0,3,0,0,5,0,5,3,4,1,2,0,3,4,1,2,3]","60","420","12","null","","<div class=""feedback-message""></div><div class=""stimulus-container""><div class=""position-wrapper""><div class=""key-label"">S</div><div class=""position-box "" data-position=""0""></div></div><div class=""position-wrapper""><div class=""key-label"">D</div><div class=""position-box "" data-position=""1""></div></div><div class=""position-wrapper""><div class=""key-label"">F</div><div class=""position-box "" data-position=""2""></div></div><div class=""position-wrapper""><div class=""key-label"">J</div><div class=""position-box "" data-position=""3""></div></div><div class=""position-wrapper""><div class=""key-label"">K</div><div class=""position-box "" data-position=""4""></div></div><div class=""position-wrapper""><div class=""key-label"">L</div><div class=""position-box "" data-position=""5""></div></div></div><div class=""finger-diagram-container"">
			<img src=""assets/finger-diagrams/finger-diagram-6pos.png"" alt=""Finger position guide"" class=""finger-diagram"" />
		</div>","null","","","","","","","",""
"","","","","","practice","stimulus","html-keyboard-response","18","44355","0.0-8.0-0.0-0.0","P_76e9938d35766a572c6ffa85c5605204cb461d529c7fcde090d2be5769b23ef3","6975d475053a04ec2a824d54","6975d5a7604ee2dc7b66e285","6","[[0.22736964714484262,1.4389615966943733e-11,0,0.20984759685851753,0.06520404977486319,0.4975787062073871],[7.505216870414609e-13,1.4258841105232542e-11,0.9882196383546002,0.011780361555829953,5.905431977191516e-11,1.550626783568228e-11],[0.2273234356477396,1.4382488357004985e-11,0,0.20981619168212484,0.06519783227405394,0.49766254038169905],[0.27410027860516395,1.4381596613135696e-11,0.011768424314658198,0.21370829276791165,0.4956618083854289,0.004761195912455649],[0.004151376708677999,0.8541519975946235,0,0.14169662567971403,1.363513216867255e-12,1.562112260929659e-11],[0.26705763578310293,0.14585056634172525,0,0.21315316928175454,0.3739386285926206,7.966607020055105e-13]]","[1.7164586615480488,0.09237731181353706,1.7163490803009984,1.6016287006430234,0.6265709654819551,1.9197818344737418]","[2,5,3,4,1,2,0,3,0,3,4,3,4,1,2,0,5,0,4,1,2,0,5,4,1,2,0,3,4,1,2,5,4,3,4,1,2,5,0,5,0,0,5,4,1,2,5,3,3,3,0,0,5,1,2,3,0,5,0,4,1,2,5,4,1,2,3,4,1,2,0,0,5,4,1,2,5,0,3,3,3,0,5,0,0,0,5,4,3,0,0,3,4,1,2,5,4,1,2,5,4,3,4,3,4,1,2,5,1,2,0,0,3,4,1,2,0,3,4,3,4,1,2,5,4,1,2,3,0,3,3,3,4,1,2,3,3,4,1,2,5,4,1,2,0,3,0,5,4,3,4,1,2,5,3,0,5,0,0,5,0,5,4,1,2,5,3,4,1,2,4,1,2,5,0,3,4,1,2,5,4,3,4,1,2,5,0,0,5,0,3,4,1,2,5,4,1,2,5,4,1,2,5,1,2,0,0,5,4,1,2,5,3,4,3,4,1,2,5,3,4,1,2,5,1,2,5,4,1,2,0,5,4,1,2,5,4,1,2,5,1,2,0,3,0,5,1,2,3,3,4,1,2,5,0,5,3,4,1,2,5,4,1,2,0,5,1,2,0,4,1,2,5,1,2,3,4,1,2,5,4,1,2,5,0,5,1,2,5,0,5,1,2,0,0,5,4,1,2,5,0,0,3,4,3,4,1,2,5,4,1,2,0,5,4,3,4,3,3,4,1,2,4,1,3,0,5,4,1,3,3,3,0,5,4,1,2,5,1,2,0,0,0,0,5,4,1,2,4,1,2,3,4,3,4,3,3,0,0,3,4,1,2,3,3,4,1,2,5,0,3,0,3,3,4,1,2,3,4,1,2,5,4,1,2,3,4,1,2,3,4,1,2,5,0,5,3,3,0,0,3,4,3,0,3,0,0,5,0,5,3,4,1,2,0,3,4,1,2,3]","60","420","12","795","","<div class=""feedback-message""></div><div class=""stimulus-container""><div class=""position-wrapper""><div class=""key-label"">S</div><div class=""position-box "" data-position=""0""></div></div><div class=""position-wrapper""><div class=""key-label"">D</div><div class=""position-box "" data-position=""1""></div></div><div class=""position-wrapper""><div class=""key-label"">F</div><div class=""position-box "" data-position=""2""></div></div><div class=""position-wrapper""><div class=""key-label"">J</div><div class=""position-box "" data-position=""3""></div></div><div class=""position-wrapper""><div class=""key-label"">K</div><div class=""position-box active"" data-position=""4""></div></div><div class=""position-wrapper""><div class=""key-label"">L</div><div class=""position-box "" data-position=""5""></div></div></div><div class=""finger-diagram-container"">
			<img src=""assets/finger-diagrams/finger-diagram-6pos.png"" alt=""Finger position guide"" class=""finger-diagram"" />
		</div>","k","4","k","true","","","","",""
"","","","","","practice","feedback","html-keyboard-response","19","44557","0.0-8.0-0.0-1.0","P_76e9938d35766a572c6ffa85c5605204cb461d529c7fcde090d2be5769b23ef3","6975d475053a04ec2a824d54","6975d5a7604ee2dc7b66e285","6","[[0.22736964714484262,1.4389615966943733e-11,0,0.20984759685851753,0.06520404977486319,0.4975787062073871],[7.505216870414609e-13,1.4258841105232542e-11,0.9882196383546002,0.011780361555829953,5.905431977191516e-11,1.550626783568228e-11],[0.2273234356477396,1.4382488357004985e-11,0,0.20981619168212484,0.06519783227405394,0.49766254038169905],[0.27410027860516395,1.4381596613135696e-11,0.011768424314658198,0.21370829276791165,0.4956618083854289,0.004761195912455649],[0.004151376708677999,0.8541519975946235,0,0.14169662567971403,1.363513216867255e-12,1.562112260929659e-11],[0.26705763578310293,0.14585056634172525,0,0.21315316928175454,0.3739386285926206,7.966607020055105e-13]]","[1.7164586615480488,0.09237731181353706,1.7163490803009984,1.6016287006430234,0.6265709654819551,1.9197818344737418]","[2,5,3,4,1,2,0,3,0,3,4,3,4,1,2,0,5,0,4,1,2,0,5,4,1,2,0,3,4,1,2,5,4,3,4,1,2,5,0,5,0,0,5,4,1,2,5,3,3,3,0,0,5,1,2,3,0,5,0,4,1,2,5,4,1,2,3,4,1,2,0,0,5,4,1,2,5,0,3,3,3,0,5,0,0,0,5,4,3,0,0,3,4,1,2,5,4,1,2,5,4,3,4,3,4,1,2,5,1,2,0,0,3,4,1,2,0,3,4,3,4,1,2,5,4,1,2,3,0,3,3,3,4,1,2,3,3,4,1,2,5,4,1,2,0,3,0,5,4,3,4,1,2,5,3,0,5,0,0,5,0,5,4,1,2,5,3,4,1,2,4,1,2,5,0,3,4,1,2,5,4,3,4,1,2,5,0,0,5,0,3,4,1,2,5,4,1,2,5,4,1,2,5,1,2,0,0,5,4,1,2,5,3,4,3,4,1,2,5,3,4,1,2,5,1,2,5,4,1,2,0,5,4,1,2,5,4,1,2,5,1,2,0,3,0,5,1,2,3,3,4,1,2,5,0,5,3,4,1,2,5,4,1,2,0,5,1,2,0,4,1,2,5,1,2,3,4,1,2,5,4,1,2,5,0,5,1,2,5,0,5,1,2,0,0,5,4,1,2,5,0,0,3,4,3,4,1,2,5,4,1,2,0,5,4,3,4,3,3,4,1,2,4,1,3,0,5,4,1,3,3,3,0,5,4,1,2,5,1,2,0,0,0,0,5,4,1,2,4,1,2,3,4,3,4,3,3,0,0,3,4,1,2,3,3,4,1,2,5,0,3,0,3,3,4,1,2,3,4,1,2,5,4,1,2,3,4,1,2,3,4,1,2,5,0,5,3,3,0,0,3,4,3,0,3,0,0,5,0,5,3,4,1,2,0,3,4,1,2,3]","60","420","12","null","","<div class=""feedback-message""><div class=""feedback-correct"">✓</div></div><div class=""stimulus-container""><div class=""position-wrapper""><div class=""key-label"">S</div><div class=""position-box "" data-position=""0""></div></div><div class=""position-wrapper""><div class=""key-label"">D</div><div class=""position-box "" data-position=""1""></div></div><div class=""position-wrapper""><div class=""key-label"">F</div><div class=""position-box "" data-position=""2""></div></div><div class=""position-wrapper""><div class=""key-label"">J</div><div class=""position-box "" data-position=""3""></div></div><div class=""position-wrapper""><div class=""key-label"">K</div><div class=""position-box active"" data-position=""4""></div></div><div class=""position-wrapper""><div class=""key-label"">L</div><div class=""position-box "" data-position=""5""></div></div></div><div class=""finger-diagram-container"">
			<img src=""assets/finger-diagrams/finger-diagram-6pos.png"" alt=""Finger position guide"" class=""finger-diagram"" />
		</div>","null","","","","","","","",""
"","","","","","practice","rsi","html-keyboard-response","20","44681","0.0-8.0-1.0","P_76e9938d35766a572c6ffa85c5605204cb461d529c7fcde090d2be5769b23ef3","6975d475053a04ec2a824d54","6975d5a7604ee2dc7b66e285","6","[[0.22736964714484262,1.4389615966943733e-11,0,0.20984759685851753,0.06520404977486319,0.4975787062073871],[7.505216870414609e-13,1.4258841105232542e-11,0.9882196383546002,0.011780361555829953,5.905431977191516e-11,1.550626783568228e-11],[0.2273234356477396,1.4382488357004985e-11,0,0.20981619168212484,0.06519783227405394,0.49766254038169905],[0.27410027860516395,1.4381596613135696e-11,0.011768424314658198,0.21370829276791165,0.4956618083854289,0.004761195912455649],[0.004151376708677999,0.8541519975946235,0,0.14169662567971403,1.363513216867255e-12,1.562112260929659e-11],[0.26705763578310293,0.14585056634172525,0,0.21315316928175454,0.3739386285926206,7.966607020055105e-13]]","[1.7164586615480488,0.09237731181353706,1.7163490803009984,1.6016287006430234,0.6265709654819551,1.9197818344737418]","[2,5,3,4,1,2,0,3,0,3,4,3,4,1,2,0,5,0,4,1,2,0,5,4,1,2,0,3,4,1,2,5,4,3,4,1,2,5,0,5,0,0,5,4,1,2,5,3,3,3,0,0,5,1,2,3,0,5,0,4,1,2,5,4,1,2,3,4,1,2,0,0,5,4,1,2,5,0,3,3,3,0,5,0,0,0,5,4,3,0,0,3,4,1,2,5,4,1,2,5,4,3,4,3,4,1,2,5,1,2,0,0,3,4,1,2,0,3,4,3,4,1,2,5,4,1,2,3,0,3,3,3,4,1,2,3,3,4,1,2,5,4,1,2,0,3,0,5,4,3,4,1,2,5,3,0,5,0,0,5,0,5,4,1,2,5,3,4,1,2,4,1,2,5,0,3,4,1,2,5,4,3,4,1,2,5,0,0,5,0,3,4,1,2,5,4,1,2,5,4,1,2,5,1,2,0,0,5,4,1,2,5,3,4,3,4,1,2,5,3,4,1,2,5,1,2,5,4,1,2,0,5,4,1,2,5,4,1,2,5,1,2,0,3,0,5,1,2,3,3,4,1,2,5,0,5,3,4,1,2,5,4,1,2,0,5,1,2,0,4,1,2,5,1,2,3,4,1,2,5,4,1,2,5,0,5,1,2,5,0,5,1,2,0,0,5,4,1,2,5,0,0,3,4,3,4,1,2,5,4,1,2,0,5,4,3,4,3,3,4,1,2,4,1,3,0,5,4,1,3,3,3,0,5,4,1,2,5,1,2,0,0,0,0,5,4,1,2,4,1,2,3,4,3,4,3,3,0,0,3,4,1,2,3,3,4,1,2,5,0,3,0,3,3,4,1,2,3,4,1,2,5,4,1,2,3,4,1,2,3,4,1,2,5,0,5,3,3,0,0,3,4,3,0,3,0,0,5,0,5,3,4,1,2,0,3,4,1,2,3]","60","420","12","null","","<div class=""feedback-message""></div><div class=""stimulus-container""><div class=""position-wrapper""><div class=""key-label"">S</div><div class=""position-box "" data-position=""0""></div></div><div class=""position-wrapper""><div class=""key-label"">D</div><div class=""position-box "" data-position=""1""></div></div><div class=""position-wrapper""><div class=""key-label"">F</div><div class=""position-box "" data-position=""2""></div></div><div class=""position-wrapper""><div class=""key-label"">J</div><div class=""position-box "" data-position=""3""></div></div><div class=""position-wrapper""><div class=""key-label"">K</div><div class=""position-box "" data-position=""4""></div></div><div class=""position-wrapper""><div class=""key-label"">L</div><div class=""position-box "" data-position=""5""></div></div></div><div class=""finger-diagram-container"">
			<img src=""assets/finger-diagrams/finger-diagram-6pos.png"" alt=""Finger position guide"" class=""finger-diagram"" />
		</div>","null","","","","","","","",""
"","","","","","practice","stimulus","html-keyboard-response","21","45308","0.0-9.0-0.0-0.0","P_76e9938d35766a572c6ffa85c5605204cb461d529c7fcde090d2be5769b23ef3","6975d475053a04ec2a824d54","6975d5a7604ee2dc7b66e285","6","[[0.22736964714484262,1.4389615966943733e-11,0,0.20984759685851753,0.06520404977486319,0.4975787062073871],[7.505216870414609e-13,1.4258841105232542e-11,0.9882196383546002,0.011780361555829953,5.905431977191516e-11,1.550626783568228e-11],[0.2273234356477396,1.4382488357004985e-11,0,0.20981619168212484,0.06519783227405394,0.49766254038169905],[0.27410027860516395,1.4381596613135696e-11,0.011768424314658198,0.21370829276791165,0.4956618083854289,0.004761195912455649],[0.004151376708677999,0.8541519975946235,0,0.14169662567971403,1.363513216867255e-12,1.562112260929659e-11],[0.26705763578310293,0.14585056634172525,0,0.21315316928175454,0.3739386285926206,7.966607020055105e-13]]","[1.7164586615480488,0.09237731181353706,1.7163490803009984,1.6016287006430234,0.6265709654819551,1.9197818344737418]","[2,5,3,4,1,2,0,3,0,3,4,3,4,1,2,0,5,0,4,1,2,0,5,4,1,2,0,3,4,1,2,5,4,3,4,1,2,5,0,5,0,0,5,4,1,2,5,3,3,3,0,0,5,1,2,3,0,5,0,4,1,2,5,4,1,2,3,4,1,2,0,0,5,4,1,2,5,0,3,3,3,0,5,0,0,0,5,4,3,0,0,3,4,1,2,5,4,1,2,5,4,3,4,3,4,1,2,5,1,2,0,0,3,4,1,2,0,3,4,3,4,1,2,5,4,1,2,3,0,3,3,3,4,1,2,3,3,4,1,2,5,4,1,2,0,3,0,5,4,3,4,1,2,5,3,0,5,0,0,5,0,5,4,1,2,5,3,4,1,2,4,1,2,5,0,3,4,1,2,5,4,3,4,1,2,5,0,0,5,0,3,4,1,2,5,4,1,2,5,4,1,2,5,1,2,0,0,5,4,1,2,5,3,4,3,4,1,2,5,3,4,1,2,5,1,2,5,4,1,2,0,5,4,1,2,5,4,1,2,5,1,2,0,3,0,5,1,2,3,3,4,1,2,5,0,5,3,4,1,2,5,4,1,2,0,5,1,2,0,4,1,2,5,1,2,3,4,1,2,5,4,1,2,5,0,5,1,2,5,0,5,1,2,0,0,5,4,1,2,5,0,0,3,4,3,4,1,2,5,4,1,2,0,5,4,3,4,3,3,4,1,2,4,1,3,0,5,4,1,3,3,3,0,5,4,1,2,5,1,2,0,0,0,0,5,4,1,2,4,1,2,3,4,3,4,3,3,0,0,3,4,1,2,3,3,4,1,2,5,0,3,0,3,3,4,1,2,3,4,1,2,5,4,1,2,3,4,1,2,3,4,1,2,5,0,5,3,3,0,0,3,4,3,0,3,0,0,5,0,5,3,4,1,2,0,3,4,1,2,3]","60","420","12","625","","<div class=""feedback-message""></div><div class=""stimulus-container""><div class=""position-wrapper""><div class=""key-label"">S</div><div class=""position-box "" data-position=""0""></div></div><div class=""position-wrapper""><div class=""key-label"">D</div><div class=""position-box active"" data-position=""1""></div></div><div class=""position-wrapper""><div class=""key-label"">F</div><div class=""position-box "" data-position=""2""></div></div><div class=""position-wrapper""><div class=""key-label"">J</div><div class=""position-box "" data-position=""3""></div></div><div class=""position-wrapper""><div class=""key-label"">K</div><div class=""position-box "" data-position=""4""></div></div><div class=""position-wrapper""><div class=""key-label"">L</div><div class=""position-box "" data-position=""5""></div></div></div><div class=""finger-diagram-container"">
			<img src=""assets/finger-diagrams/finger-diagram-6pos.png"" alt=""Finger position guide"" class=""finger-diagram"" />
		</div>","d","1","d","true","","","","",""
"","","","","","practice","feedback","html-keyboard-response","22","45510","0.0-9.0-0.0-1.0","P_76e9938d35766a572c6ffa85c5605204cb461d529c7fcde090d2be5769b23ef3","6975d475053a04ec2a824d54","6975d5a7604ee2dc7b66e285","6","[[0.22736964714484262,1.4389615966943733e-11,0,0.20984759685851753,0.06520404977486319,0.4975787062073871],[7.505216870414609e-13,1.4258841105232542e-11,0.9882196383546002,0.011780361555829953,5.905431977191516e-11,1.550626783568228e-11],[0.2273234356477396,1.4382488357004985e-11,0,0.20981619168212484,0.06519783227405394,0.49766254038169905],[0.27410027860516395,1.4381596613135696e-11,0.011768424314658198,0.21370829276791165,0.4956618083854289,0.004761195912455649],[0.004151376708677999,0.8541519975946235,0,0.14169662567971403,1.363513216867255e-12,1.562112260929659e-11],[0.26705763578310293,0.14585056634172525,0,0.21315316928175454,0.3739386285926206,7.966607020055105e-13]]","[1.7164586615480488,0.09237731181353706,1.7163490803009984,1.6016287006430234,0.6265709654819551,1.9197818344737418]","[2,5,3,4,1,2,0,3,0,3,4,3,4,1,2,0,5,0,4,1,2,0,5,4,1,2,0,3,4,1,2,5,4,3,4,1,2,5,0,5,0,0,5,4,1,2,5,3,3,3,0,0,5,1,2,3,0,5,0,4,1,2,5,4,1,2,3,4,1,2,0,0,5,4,1,2,5,0,3,3,3,0,5,0,0,0,5,4,3,0,0,3,4,1,2,5,4,1,2,5,4,3,4,3,4,1,2,5,1,2,0,0,3,4,1,2,0,3,4,3,4,1,2,5,4,1,2,3,0,3,3,3,4,1,2,3,3,4,1,2,5,4,1,2,0,3,0,5,4,3,4,1,2,5,3,0,5,0,0,5,0,5,4,1,2,5,3,4,1,2,4,1,2,5,0,3,4,1,2,5,4,3,4,1,2,5,0,0,5,0,3,4,1,2,5,4,1,2,5,4,1,2,5,1,2,0,0,5,4,1,2,5,3,4,3,4,1,2,5,3,4,1,2,5,1,2,5,4,1,2,0,5,4,1,2,5,4,1,2,5,1,2,0,3,0,5,1,2,3,3,4,1,2,5,0,5,3,4,1,2,5,4,1,2,0,5,1,2,0,4,1,2,5,1,2,3,4,1,2,5,4,1,2,5,0,5,1,2,5,0,5,1,2,0,0,5,4,1,2,5,0,0,3,4,3,4,1,2,5,4,1,2,0,5,4,3,4,3,3,4,1,2,4,1,3,0,5,4,1,3,3,3,0,5,4,1,2,5,1,2,0,0,0,0,5,4,1,2,4,1,2,3,4,3,4,3,3,0,0,3,4,1,2,3,3,4,1,2,5,0,3,0,3,3,4,1,2,3,4,1,2,5,4,1,2,3,4,1,2,3,4,1,2,5,0,5,3,3,0,0,3,4,3,0,3,0,0,5,0,5,3,4,1,2,0,3,4,1,2,3]","60","420","12","null","","<div class=""feedback-message""><div class=""feedback-correct"">✓</div></div><div class=""stimulus-container""><div class=""position-wrapper""><div class=""key-label"">S</div><div class=""position-box "" data-position=""0""></div></div><div class=""position-wrapper""><div class=""key-label"">D</div><div class=""position-box active"" data-position=""1""></div></div><div class=""position-wrapper""><div class=""key-label"">F</div><div class=""position-box "" data-position=""2""></div></div><div class=""position-wrapper""><div class=""key-label"">J</div><div class=""position-box "" data-position=""3""></div></div><div class=""position-wrapper""><div class=""key-label"">K</div><div class=""position-box "" data-position=""4""></div></div><div class=""position-wrapper""><div class=""key-label"">L</div><div class=""position-box "" data-position=""5""></div></div></div><div class=""finger-diagram-container"">
			<img src=""assets/finger-diagrams/finger-diagram-6pos.png"" alt=""Finger position guide"" class=""finger-diagram"" />
		</div>","null","","","","","","","",""
"","","","","","practice","rsi","html-keyboard-response","23","45633","0.0-9.0-1.0","P_76e9938d35766a572c6ffa85c5605204cb461d529c7fcde090d2be5769b23ef3","6975d475053a04ec2a824d54","6975d5a7604ee2dc7b66e285","6","[[0.22736964714484262,1.4389615966943733e-11,0,0.20984759685851753,0.06520404977486319,0.4975787062073871],[7.505216870414609e-13,1.4258841105232542e-11,0.9882196383546002,0.011780361555829953,5.905431977191516e-11,1.550626783568228e-11],[0.2273234356477396,1.4382488357004985e-11,0,0.20981619168212484,0.06519783227405394,0.49766254038169905],[0.27410027860516395,1.4381596613135696e-11,0.011768424314658198,0.21370829276791165,0.4956618083854289,0.004761195912455649],[0.004151376708677999,0.8541519975946235,0,0.14169662567971403,1.363513216867255e-12,1.562112260929659e-11],[0.26705763578310293,0.14585056634172525,0,0.21315316928175454,0.3739386285926206,7.966607020055105e-13]]","[1.7164586615480488,0.09237731181353706,1.7163490803009984,1.6016287006430234,0.6265709654819551,1.9197818344737418]","[2,5,3,4,1,2,0,3,0,3,4,3,4,1,2,0,5,0,4,1,2,0,5,4,1,2,0,3,4,1,2,5,4,3,4,1,2,5,0,5,0,0,5,4,1,2,5,3,3,3,0,0,5,1,2,3,0,5,0,4,1,2,5,4,1,2,3,4,1,2,0,0,5,4,1,2,5,0,3,3,3,0,5,0,0,0,5,4,3,0,0,3,4,1,2,5,4,1,2,5,4,3,4,3,4,1,2,5,1,2,0,0,3,4,1,2,0,3,4,3,4,1,2,5,4,1,2,3,0,3,3,3,4,1,2,3,3,4,1,2,5,4,1,2,0,3,0,5,4,3,4,1,2,5,3,0,5,0,0,5,0,5,4,1,2,5,3,4,1,2,4,1,2,5,0,3,4,1,2,5,4,3,4,1,2,5,0,0,5,0,3,4,1,2,5,4,1,2,5,4,1,2,5,1,2,0,0,5,4,1,2,5,3,4,3,4,1,2,5,3,4,1,2,5,1,2,5,4,1,2,0,5,4,1,2,5,4,1,2,5,1,2,0,3,0,5,1,2,3,3,4,1,2,5,0,5,3,4,1,2,5,4,1,2,0,5,1,2,0,4,1,2,5,1,2,3,4,1,2,5,4,1,2,5,0,5,1,2,5,0,5,1,2,0,0,5,4,1,2,5,0,0,3,4,3,4,1,2,5,4,1,2,0,5,4,3,4,3,3,4,1,2,4,1,3,0,5,4,1,3,3,3,0,5,4,1,2,5,1,2,0,0,0,0,5,4,1,2,4,1,2,3,4,3,4,3,3,0,0,3,4,1,2,3,3,4,1,2,5,0,3,0,3,3,4,1,2,3,4,1,2,5,4,1,2,3,4,1,2,3,4,1,2,5,0,5,3,3,0,0,3,4,3,0,3,0,0,5,0,5,3,4,1,2,0,3,4,1,2,3]","60","420","12","null","","<div class=""feedback-message""></div><div class=""stimulus-container""><div class=""position-wrapper""><div class=""key-label"">S</div><div class=""position-box "" data-position=""0""></div></div><div class=""position-wrapper""><div class=""key-label"">D</div><div class=""position-box "" data-position=""1""></div></div><div class=""position-wrapper""><div class=""key-label"">F</div><div class=""position-box "" data-position=""2""></div></div><div class=""position-wrapper""><div class=""key-label"">J</div><div class=""position-box "" data-position=""3""></div></div><div class=""position-wrapper""><div class=""key-label"">K</div><div class=""position-box "" data-position=""4""></div></div><div class=""position-wrapper""><div class=""key-label"">L</div><div class=""position-box "" data-position=""5""></div></div></div><div class=""finger-diagram-container"">
			<img src=""assets/finger-diagrams/finger-diagram-6pos.png"" alt=""Finger position guide"" class=""finger-diagram"" />
		</div>","null","","","","","","","",""
"","","","","","practice","stimulus","html-keyboard-response","24","46127","0.0-10.0-0.0-0.0","P_76e9938d35766a572c6ffa85c5605204cb461d529c7fcde090d2be5769b23ef3","6975d475053a04ec2a824d54","6975d5a7604ee2dc7b66e285","6","[[0.22736964714484262,1.4389615966943733e-11,0,0.20984759685851753,0.06520404977486319,0.4975787062073871],[7.505216870414609e-13,1.4258841105232542e-11,0.9882196383546002,0.011780361555829953,5.905431977191516e-11,1.550626783568228e-11],[0.2273234356477396,1.4382488357004985e-11,0,0.20981619168212484,0.06519783227405394,0.49766254038169905],[0.27410027860516395,1.4381596613135696e-11,0.011768424314658198,0.21370829276791165,0.4956618083854289,0.004761195912455649],[0.004151376708677999,0.8541519975946235,0,0.14169662567971403,1.363513216867255e-12,1.562112260929659e-11],[0.26705763578310293,0.14585056634172525,0,0.21315316928175454,0.3739386285926206,7.966607020055105e-13]]","[1.7164586615480488,0.09237731181353706,1.7163490803009984,1.6016287006430234,0.6265709654819551,1.9197818344737418]","[2,5,3,4,1,2,0,3,0,3,4,3,4,1,2,0,5,0,4,1,2,0,5,4,1,2,0,3,4,1,2,5,4,3,4,1,2,5,0,5,0,0,5,4,1,2,5,3,3,3,0,0,5,1,2,3,0,5,0,4,1,2,5,4,1,2,3,4,1,2,0,0,5,4,1,2,5,0,3,3,3,0,5,0,0,0,5,4,3,0,0,3,4,1,2,5,4,1,2,5,4,3,4,3,4,1,2,5,1,2,0,0,3,4,1,2,0,3,4,3,4,1,2,5,4,1,2,3,0,3,3,3,4,1,2,3,3,4,1,2,5,4,1,2,0,3,0,5,4,3,4,1,2,5,3,0,5,0,0,5,0,5,4,1,2,5,3,4,1,2,4,1,2,5,0,3,4,1,2,5,4,3,4,1,2,5,0,0,5,0,3,4,1,2,5,4,1,2,5,4,1,2,5,1,2,0,0,5,4,1,2,5,3,4,3,4,1,2,5,3,4,1,2,5,1,2,5,4,1,2,0,5,4,1,2,5,4,1,2,5,1,2,0,3,0,5,1,2,3,3,4,1,2,5,0,5,3,4,1,2,5,4,1,2,0,5,1,2,0,4,1,2,5,1,2,3,4,1,2,5,4,1,2,5,0,5,1,2,5,0,5,1,2,0,0,5,4,1,2,5,0,0,3,4,3,4,1,2,5,4,1,2,0,5,4,3,4,3,3,4,1,2,4,1,3,0,5,4,1,3,3,3,0,5,4,1,2,5,1,2,0,0,0,0,5,4,1,2,4,1,2,3,4,3,4,3,3,0,0,3,4,1,2,3,3,4,1,2,5,0,3,0,3,3,4,1,2,3,4,1,2,5,4,1,2,3,4,1,2,3,4,1,2,5,0,5,3,3,0,0,3,4,3,0,3,0,0,5,0,5,3,4,1,2,0,3,4,1,2,3]","60","420","12","492","","<div class=""feedback-message""></div><div class=""stimulus-container""><div class=""position-wrapper""><div class=""key-label"">S</div><div class=""position-box active"" data-position=""0""></div></div><div class=""position-wrapper""><div class=""key-label"">D</div><div class=""position-box "" data-position=""1""></div></div><div class=""position-wrapper""><div class=""key-label"">F</div><div class=""position-box "" data-position=""2""></div></div><div class=""position-wrapper""><div class=""key-label"">J</div><div class=""position-box "" data-position=""3""></div></div><div class=""position-wrapper""><div class=""key-label"">K</div><div class=""position-box "" data-position=""4""></div></div><div class=""position-wrapper""><div class=""key-label"">L</div><div class=""position-box "" data-position=""5""></div></div></div><div class=""finger-diagram-container"">
			<img src=""assets/finger-diagrams/finger-diagram-6pos.png"" alt=""Finger position guide"" class=""finger-diagram"" />
		</div>","s","0","s","true","","","","",""
"","","","","","practice","feedback","html-keyboard-response","25","46330","0.0-10.0-0.0-1.0","P_76e9938d35766a572c6ffa85c5605204cb461d529c7fcde090d2be5769b23ef3","6975d475053a04ec2a824d54","6975d5a7604ee2dc7b66e285","6","[[0.22736964714484262,1.4389615966943733e-11,0,0.20984759685851753,0.06520404977486319,0.4975787062073871],[7.505216870414609e-13,1.4258841105232542e-11,0.9882196383546002,0.011780361555829953,5.905431977191516e-11,1.550626783568228e-11],[0.2273234356477396,1.4382488357004985e-11,0,0.20981619168212484,0.06519783227405394,0.49766254038169905],[0.27410027860516395,1.4381596613135696e-11,0.011768424314658198,0.21370829276791165,0.4956618083854289,0.004761195912455649],[0.004151376708677999,0.8541519975946235,0,0.14169662567971403,1.363513216867255e-12,1.562112260929659e-11],[0.26705763578310293,0.14585056634172525,0,0.21315316928175454,0.3739386285926206,7.966607020055105e-13]]","[1.7164586615480488,0.09237731181353706,1.7163490803009984,1.6016287006430234,0.6265709654819551,1.9197818344737418]","[2,5,3,4,1,2,0,3,0,3,4,3,4,1,2,0,5,0,4,1,2,0,5,4,1,2,0,3,4,1,2,5,4,3,4,1,2,5,0,5,0,0,5,4,1,2,5,3,3,3,0,0,5,1,2,3,0,5,0,4,1,2,5,4,1,2,3,4,1,2,0,0,5,4,1,2,5,0,3,3,3,0,5,0,0,0,5,4,3,0,0,3,4,1,2,5,4,1,2,5,4,3,4,3,4,1,2,5,1,2,0,0,3,4,1,2,0,3,4,3,4,1,2,5,4,1,2,3,0,3,3,3,4,1,2,3,3,4,1,2,5,4,1,2,0,3,0,5,4,3,4,1,2,5,3,0,5,0,0,5,0,5,4,1,2,5,3,4,1,2,4,1,2,5,0,3,4,1,2,5,4,3,4,1,2,5,0,0,5,0,3,4,1,2,5,4,1,2,5,4,1,2,5,1,2,0,0,5,4,1,2,5,3,4,3,4,1,2,5,3,4,1,2,5,1,2,5,4,1,2,0,5,4,1,2,5,4,1,2,5,1,2,0,3,0,5,1,2,3,3,4,1,2,5,0,5,3,4,1,2,5,4,1,2,0,5,1,2,0,4,1,2,5,1,2,3,4,1,2,5,4,1,2,5,0,5,1,2,5,0,5,1,2,0,0,5,4,1,2,5,0,0,3,4,3,4,1,2,5,4,1,2,0,5,4,3,4,3,3,4,1,2,4,1,3,0,5,4,1,3,3,3,0,5,4,1,2,5,1,2,0,0,0,0,5,4,1,2,4,1,2,3,4,3,4,3,3,0,0,3,4,1,2,3,3,4,1,2,5,0,3,0,3,3,4,1,2,3,4,1,2,5,4,1,2,3,4,1,2,3,4,1,2,5,0,5,3,3,0,0,3,4,3,0,3,0,0,5,0,5,3,4,1,2,0,3,4,1,2,3]","60","420","12","null","","<div class=""feedback-message""><div class=""feedback-correct"">✓</div></div><div class=""stimulus-container""><div class=""position-wrapper""><div class=""key-label"">S</div><div class=""position-box active"" data-position=""0""></div></div><div class=""position-wrapper""><div class=""key-label"">D</div><div class=""position-box "" data-position=""1""></div></div><div class=""position-wrapper""><div class=""key-label"">F</div><div class=""position-box "" data-position=""2""></div></div><div class=""position-wrapper""><div class=""key-label"">J</div><div class=""position-box "" data-position=""3""></div></div><div class=""position-wrapper""><div class=""key-label"">K</div><div class=""position-box "" data-position=""4""></div></div><div class=""position-wrapper""><div class=""key-label"">L</div><div class=""position-box "" data-position=""5""></div></div></div><div class=""finger-diagram-container"">
			<img src=""assets/finger-diagrams/finger-diagram-6pos.png"" alt=""Finger position guide"" class=""finger-diagram"" />
		</div>","null","","","","","","","",""
"","","","","","practice","rsi","html-keyboard-response","26","46454","0.0-10.0-1.0","P_76e9938d35766a572c6ffa85c5605204cb461d529c7fcde090d2be5769b23ef3","6975d475053a04ec2a824d54","6975d5a7604ee2dc7b66e285","6","[[0.22736964714484262,1.4389615966943733e-11,0,0.20984759685851753,0.06520404977486319,0.4975787062073871],[7.505216870414609e-13,1.4258841105232542e-11,0.9882196383546002,0.011780361555829953,5.905431977191516e-11,1.550626783568228e-11],[0.2273234356477396,1.4382488357004985e-11,0,0.20981619168212484,0.06519783227405394,0.49766254038169905],[0.27410027860516395,1.4381596613135696e-11,0.011768424314658198,0.21370829276791165,0.4956618083854289,0.004761195912455649],[0.004151376708677999,0.8541519975946235,0,0.14169662567971403,1.363513216867255e-12,1.562112260929659e-11],[0.26705763578310293,0.14585056634172525,0,0.21315316928175454,0.3739386285926206,7.966607020055105e-13]]","[1.7164586615480488,0.09237731181353706,1.7163490803009984,1.6016287006430234,0.6265709654819551,1.9197818344737418]","[2,5,3,4,1,2,0,3,0,3,4,3,4,1,2,0,5,0,4,1,2,0,5,4,1,2,0,3,4,1,2,5,4,3,4,1,2,5,0,5,0,0,5,4,1,2,5,3,3,3,0,0,5,1,2,3,0,5,0,4,1,2,5,4,1,2,3,4,1,2,0,0,5,4,1,2,5,0,3,3,3,0,5,0,0,0,5,4,3,0,0,3,4,1,2,5,4,1,2,5,4,3,4,3,4,1,2,5,1,2,0,0,3,4,1,2,0,3,4,3,4,1,2,5,4,1,2,3,0,3,3,3,4,1,2,3,3,4,1,2,5,4,1,2,0,3,0,5,4,3,4,1,2,5,3,0,5,0,0,5,0,5,4,1,2,5,3,4,1,2,4,1,2,5,0,3,4,1,2,5,4,3,4,1,2,5,0,0,5,0,3,4,1,2,5,4,1,2,5,4,1,2,5,1,2,0,0,5,4,1,2,5,3,4,3,4,1,2,5,3,4,1,2,5,1,2,5,4,1,2,0,5,4,1,2,5,4,1,2,5,1,2,0,3,0,5,1,2,3,3,4,1,2,5,0,5,3,4,1,2,5,4,1,2,0,5,1,2,0,4,1,2,5,1,2,3,4,1,2,5,4,1,2,5,0,5,1,2,5,0,5,1,2,0,0,5,4,1,2,5,0,0,3,4,3,4,1,2,5,4,1,2,0,5,4,3,4,3,3,4,1,2,4,1,3,0,5,4,1,3,3,3,0,5,4,1,2,5,1,2,0,0,0,0,5,4,1,2,4,1,2,3,4,3,4,3,3,0,0,3,4,1,2,3,3,4,1,2,5,0,3,0,3,3,4,1,2,3,4,1,2,5,4,1,2,3,4,1,2,3,4,1,2,5,0,5,3,3,0,0,3,4,3,0,3,0,0,5,0,5,3,4,1,2,0,3,4,1,2,3]","60","420","12","null","","<div class=""feedback-message""></div><div class=""stimulus-container""><div class=""position-wrapper""><div class=""key-label"">S</div><div class=""position-box "" data-position=""0""></div></div><div class=""position-wrapper""><div class=""key-label"">D</div><div class=""position-box "" data-position=""1""></div></div><div class=""position-wrapper""><div class=""key-label"">F</div><div class=""position-box "" data-position=""2""></div></div><div class=""position-wrapper""><div class=""key-label"">J</div><div class=""position-box "" data-position=""3""></div></div><div class=""position-wrapper""><div class=""key-label"">K</div><div class=""position-box "" data-position=""4""></div></div><div class=""position-wrapper""><div class=""key-label"">L</div><div class=""position-box "" data-position=""5""></div></div></div><div class=""finger-diagram-container"">
			<img src=""assets/finger-diagrams/finger-diagram-6pos.png"" alt=""Finger position guide"" class=""finger-diagram"" />
		</div>","null","","","","","","","",""
"","","","","","practice","stimulus","html-keyboard-response","27","47231","0.0-11.0-0.0-0.0","P_76e9938d35766a572c6ffa85c5605204cb461d529c7fcde090d2be5769b23ef3","6975d475053a04ec2a824d54","6975d5a7604ee2dc7b66e285","6","[[0.22736964714484262,1.4389615966943733e-11,0,0.20984759685851753,0.06520404977486319,0.4975787062073871],[7.505216870414609e-13,1.4258841105232542e-11,0.9882196383546002,0.011780361555829953,5.905431977191516e-11,1.550626783568228e-11],[0.2273234356477396,1.4382488357004985e-11,0,0.20981619168212484,0.06519783227405394,0.49766254038169905],[0.27410027860516395,1.4381596613135696e-11,0.011768424314658198,0.21370829276791165,0.4956618083854289,0.004761195912455649],[0.004151376708677999,0.8541519975946235,0,0.14169662567971403,1.363513216867255e-12,1.562112260929659e-11],[0.26705763578310293,0.14585056634172525,0,0.21315316928175454,0.3739386285926206,7.966607020055105e-13]]","[1.7164586615480488,0.09237731181353706,1.7163490803009984,1.6016287006430234,0.6265709654819551,1.9197818344737418]","[2,5,3,4,1,2,0,3,0,3,4,3,4,1,2,0,5,0,4,1,2,0,5,4,1,2,0,3,4,1,2,5,4,3,4,1,2,5,0,5,0,0,5,4,1,2,5,3,3,3,0,0,5,1,2,3,0,5,0,4,1,2,5,4,1,2,3,4,1,2,0,0,5,4,1,2,5,0,3,3,3,0,5,0,0,0,5,4,3,0,0,3,4,1,2,5,4,1,2,5,4,3,4,3,4,1,2,5,1,2,0,0,3,4,1,2,0,3,4,3,4,1,2,5,4,1,2,3,0,3,3,3,4,1,2,3,3,4,1,2,5,4,1,2,0,3,0,5,4,3,4,1,2,5,3,0,5,0,0,5,0,5,4,1,2,5,3,4,1,2,4,1,2,5,0,3,4,1,2,5,4,3,4,1,2,5,0,0,5,0,3,4,1,2,5,4,1,2,5,4,1,2,5,1,2,0,0,5,4,1,2,5,3,4,3,4,1,2,5,3,4,1,2,5,1,2,5,4,1,2,0,5,4,1,2,5,4,1,2,5,1,2,0,3,0,5,1,2,3,3,4,1,2,5,0,5,3,4,1,2,5,4,1,2,0,5,1,2,0,4,1,2,5,1,2,3,4,1,2,5,4,1,2,5,0,5,1,2,5,0,5,1,2,0,0,5,4,1,2,5,0,0,3,4,3,4,1,2,5,4,1,2,0,5,4,3,4,3,3,4,1,2,4,1,3,0,5,4,1,3,3,3,0,5,4,1,2,5,1,2,0,0,0,0,5,4,1,2,4,1,2,3,4,3,4,3,3,0,0,3,4,1,2,3,3,4,1,2,5,0,3,0,3,3,4,1,2,3,4,1,2,5,4,1,2,3,4,1,2,3,4,1,2,5,0,5,3,3,0,0,3,4,3,0,3,0,0,5,0,5,3,4,1,2,0,3,4,1,2,3]","60","420","12","775","","<div class=""feedback-message""></div><div class=""stimulus-container""><div class=""position-wrapper""><div class=""key-label"">S</div><div class=""position-box "" data-position=""0""></div></div><div class=""position-wrapper""><div class=""key-label"">D</div><div class=""position-box "" data-position=""1""></div></div><div class=""position-wrapper""><div class=""key-label"">F</div><div class=""position-box "" data-position=""2""></div></div><div class=""position-wrapper""><div class=""key-label"">J</div><div class=""position-box active"" data-position=""3""></div></div><div class=""position-wrapper""><div class=""key-label"">K</div><div class=""position-box "" data-position=""4""></div></div><div class=""position-wrapper""><div class=""key-label"">L</div><div class=""position-box "" data-position=""5""></div></div></div><div class=""finger-diagram-container"">
			<img src=""assets/finger-diagrams/finger-diagram-6pos.png"" alt=""Finger position guide"" class=""finger-diagram"" />
		</div>","j","3","j","true","","","","",""
"","","","","","practice","feedback","html-keyboard-response","28","47434","0.0-11.0-0.0-1.0","P_76e9938d35766a572c6ffa85c5605204cb461d529c7fcde090d2be5769b23ef3","6975d475053a04ec2a824d54","6975d5a7604ee2dc7b66e285","6","[[0.22736964714484262,1.4389615966943733e-11,0,0.20984759685851753,0.06520404977486319,0.4975787062073871],[7.505216870414609e-13,1.4258841105232542e-11,0.9882196383546002,0.011780361555829953,5.905431977191516e-11,1.550626783568228e-11],[0.2273234356477396,1.4382488357004985e-11,0,0.20981619168212484,0.06519783227405394,0.49766254038169905],[0.27410027860516395,1.4381596613135696e-11,0.011768424314658198,0.21370829276791165,0.4956618083854289,0.004761195912455649],[0.004151376708677999,0.8541519975946235,0,0.14169662567971403,1.363513216867255e-12,1.562112260929659e-11],[0.26705763578310293,0.14585056634172525,0,0.21315316928175454,0.3739386285926206,7.966607020055105e-13]]","[1.7164586615480488,0.09237731181353706,1.7163490803009984,1.6016287006430234,0.6265709654819551,1.9197818344737418]","[2,5,3,4,1,2,0,3,0,3,4,3,4,1,2,0,5,0,4,1,2,0,5,4,1,2,0,3,4,1,2,5,4,3,4,1,2,5,0,5,0,0,5,4,1,2,5,3,3,3,0,0,5,1,2,3,0,5,0,4,1,2,5,4,1,2,3,4,1,2,0,0,5,4,1,2,5,0,3,3,3,0,5,0,0,0,5,4,3,0,0,3,4,1,2,5,4,1,2,5,4,3,4,3,4,1,2,5,1,2,0,0,3,4,1,2,0,3,4,3,4,1,2,5,4,1,2,3,0,3,3,3,4,1,2,3,3,4,1,2,5,4,1,2,0,3,0,5,4,3,4,1,2,5,3,0,5,0,0,5,0,5,4,1,2,5,3,4,1,2,4,1,2,5,0,3,4,1,2,5,4,3,4,1,2,5,0,0,5,0,3,4,1,2,5,4,1,2,5,4,1,2,5,1,2,0,0,5,4,1,2,5,3,4,3,4,1,2,5,3,4,1,2,5,1,2,5,4,1,2,0,5,4,1,2,5,4,1,2,5,1,2,0,3,0,5,1,2,3,3,4,1,2,5,0,5,3,4,1,2,5,4,1,2,0,5,1,2,0,4,1,2,5,1,2,3,4,1,2,5,4,1,2,5,0,5,1,2,5,0,5,1,2,0,0,5,4,1,2,5,0,0,3,4,3,4,1,2,5,4,1,2,0,5,4,3,4,3,3,4,1,2,4,1,3,0,5,4,1,3,3,3,0,5,4,1,2,5,1,2,0,0,0,0,5,4,1,2,4,1,2,3,4,3,4,3,3,0,0,3,4,1,2,3,3,4,1,2,5,0,3,0,3,3,4,1,2,3,4,1,2,5,4,1,2,3,4,1,2,3,4,1,2,5,0,5,3,3,0,0,3,4,3,0,3,0,0,5,0,5,3,4,1,2,0,3,4,1,2,3]","60","420","12","null","","<div class=""feedback-message""><div class=""feedback-correct"">✓</div></div><div class=""stimulus-container""><div class=""position-wrapper""><div class=""key-label"">S</div><div class=""position-box "" data-position=""0""></div></div><div class=""position-wrapper""><div class=""key-label"">D</div><div class=""position-box "" data-position=""1""></div></div><div class=""position-wrapper""><div class=""key-label"">F</div><div class=""position-box "" data-position=""2""></div></div><div class=""position-wrapper""><div class=""key-label"">J</div><div class=""position-box active"" data-position=""3""></div></div><div class=""position-wrapper""><div class=""key-label"">K</div><div class=""position-box "" data-position=""4""></div></div><div class=""position-wrapper""><div class=""key-label"">L</div><div class=""position-box "" data-position=""5""></div></div></div><div class=""finger-diagram-container"">
			<img src=""assets/finger-diagrams/finger-diagram-6pos.png"" alt=""Finger position guide"" class=""finger-diagram"" />
		</div>","null","","","","","","","",""
"","","","","","practice","rsi","html-keyboard-response","29","47555","0.0-11.0-1.0","P_76e9938d35766a572c6ffa85c5605204cb461d529c7fcde090d2be5769b23ef3","6975d475053a04ec2a824d54","6975d5a7604ee2dc7b66e285","6","[[0.22736964714484262,1.4389615966943733e-11,0,0.20984759685851753,0.06520404977486319,0.4975787062073871],[7.505216870414609e-13,1.4258841105232542e-11,0.9882196383546002,0.011780361555829953,5.905431977191516e-11,1.550626783568228e-11],[0.2273234356477396,1.4382488357004985e-11,0,0.20981619168212484,0.06519783227405394,0.49766254038169905],[0.27410027860516395,1.4381596613135696e-11,0.011768424314658198,0.21370829276791165,0.4956618083854289,0.004761195912455649],[0.004151376708677999,0.8541519975946235,0,0.14169662567971403,1.363513216867255e-12,1.562112260929659e-11],[0.26705763578310293,0.14585056634172525,0,0.21315316928175454,0.3739386285926206,7.966607020055105e-13]]","[1.7164586615480488,0.09237731181353706,1.7163490803009984,1.6016287006430234,0.6265709654819551,1.9197818344737418]","[2,5,3,4,1,2,0,3,0,3,4,3,4,1,2,0,5,0,4,1,2,0,5,4,1,2,0,3,4,1,2,5,4,3,4,1,2,5,0,5,0,0,5,4,1,2,5,3,3,3,0,0,5,1,2,3,0,5,0,4,1,2,5,4,1,2,3,4,1,2,0,0,5,4,1,2,5,0,3,3,3,0,5,0,0,0,5,4,3,0,0,3,4,1,2,5,4,1,2,5,4,3,4,3,4,1,2,5,1,2,0,0,3,4,1,2,0,3,4,3,4,1,2,5,4,1,2,3,0,3,3,3,4,1,2,3,3,4,1,2,5,4,1,2,0,3,0,5,4,3,4,1,2,5,3,0,5,0,0,5,0,5,4,1,2,5,3,4,1,2,4,1,2,5,0,3,4,1,2,5,4,3,4,1,2,5,0,0,5,0,3,4,1,2,5,4,1,2,5,4,1,2,5,1,2,0,0,5,4,1,2,5,3,4,3,4,1,2,5,3,4,1,2,5,1,2,5,4,1,2,0,5,4,1,2,5,4,1,2,5,1,2,0,3,0,5,1,2,3,3,4,1,2,5,0,5,3,4,1,2,5,4,1,2,0,5,1,2,0,4,1,2,5,1,2,3,4,1,2,5,4,1,2,5,0,5,1,2,5,0,5,1,2,0,0,5,4,1,2,5,0,0,3,4,3,4,1,2,5,4,1,2,0,5,4,3,4,3,3,4,1,2,4,1,3,0,5,4,1,3,3,3,0,5,4,1,2,5,1,2,0,0,0,0,5,4,1,2,4,1,2,3,4,3,4,3,3,0,0,3,4,1,2,3,3,4,1,2,5,0,3,0,3,3,4,1,2,3,4,1,2,5,4,1,2,3,4,1,2,3,4,1,2,5,0,5,3,3,0,0,3,4,3,0,3,0,0,5,0,5,3,4,1,2,0,3,4,1,2,3]","60","420","12","null","","<div class=""feedback-message""></div><div class=""stimulus-container""><div class=""position-wrapper""><div class=""key-label"">S</div><div class=""position-box "" data-position=""0""></div></div><div class=""position-wrapper""><div class=""key-label"">D</div><div class=""position-box "" data-position=""1""></div></div><div class=""position-wrapper""><div class=""key-label"">F</div><div class=""position-box "" data-position=""2""></div></div><div class=""position-wrapper""><div class=""key-label"">J</div><div class=""position-box "" data-position=""3""></div></div><div class=""position-wrapper""><div class=""key-label"">K</div><div class=""position-box "" data-position=""4""></div></div><div class=""position-wrapper""><div class=""key-label"">L</div><div class=""position-box "" data-position=""5""></div></div></div><div class=""finger-diagram-container"">
			<img src=""assets/finger-diagrams/finger-diagram-6pos.png"" alt=""Finger position guide"" class=""finger-diagram"" />
		</div>","null","","","","","","","",""
"","","","","","practice","stimulus","html-keyboard-response","30","48083","0.0-12.0-0.0-0.0","P_76e9938d35766a572c6ffa85c5605204cb461d529c7fcde090d2be5769b23ef3","6975d475053a04ec2a824d54","6975d5a7604ee2dc7b66e285","6","[[0.22736964714484262,1.4389615966943733e-11,0,0.20984759685851753,0.06520404977486319,0.4975787062073871],[7.505216870414609e-13,1.4258841105232542e-11,0.9882196383546002,0.011780361555829953,5.905431977191516e-11,1.550626783568228e-11],[0.2273234356477396,1.4382488357004985e-11,0,0.20981619168212484,0.06519783227405394,0.49766254038169905],[0.27410027860516395,1.4381596613135696e-11,0.011768424314658198,0.21370829276791165,0.4956618083854289,0.004761195912455649],[0.004151376708677999,0.8541519975946235,0,0.14169662567971403,1.363513216867255e-12,1.562112260929659e-11],[0.26705763578310293,0.14585056634172525,0,0.21315316928175454,0.3739386285926206,7.966607020055105e-13]]","[1.7164586615480488,0.09237731181353706,1.7163490803009984,1.6016287006430234,0.6265709654819551,1.9197818344737418]","[2,5,3,4,1,2,0,3,0,3,4,3,4,1,2,0,5,0,4,1,2,0,5,4,1,2,0,3,4,1,2,5,4,3,4,1,2,5,0,5,0,0,5,4,1,2,5,3,3,3,0,0,5,1,2,3,0,5,0,4,1,2,5,4,1,2,3,4,1,2,0,0,5,4,1,2,5,0,3,3,3,0,5,0,0,0,5,4,3,0,0,3,4,1,2,5,4,1,2,5,4,3,4,3,4,1,2,5,1,2,0,0,3,4,1,2,0,3,4,3,4,1,2,5,4,1,2,3,0,3,3,3,4,1,2,3,3,4,1,2,5,4,1,2,0,3,0,5,4,3,4,1,2,5,3,0,5,0,0,5,0,5,4,1,2,5,3,4,1,2,4,1,2,5,0,3,4,1,2,5,4,3,4,1,2,5,0,0,5,0,3,4,1,2,5,4,1,2,5,4,1,2,5,1,2,0,0,5,4,1,2,5,3,4,3,4,1,2,5,3,4,1,2,5,1,2,5,4,1,2,0,5,4,1,2,5,4,1,2,5,1,2,0,3,0,5,1,2,3,3,4,1,2,5,0,5,3,4,1,2,5,4,1,2,0,5,1,2,0,4,1,2,5,1,2,3,4,1,2,5,4,1,2,5,0,5,1,2,5,0,5,1,2,0,0,5,4,1,2,5,0,0,3,4,3,4,1,2,5,4,1,2,0,5,4,3,4,3,3,4,1,2,4,1,3,0,5,4,1,3,3,3,0,5,4,1,2,5,1,2,0,0,0,0,5,4,1,2,4,1,2,3,4,3,4,3,3,0,0,3,4,1,2,3,3,4,1,2,5,0,3,0,3,3,4,1,2,3,4,1,2,5,4,1,2,3,4,1,2,3,4,1,2,5,0,5,3,3,0,0,3,4,3,0,3,0,0,5,0,5,3,4,1,2,0,3,4,1,2,3]","60","420","12","527","","<div class=""feedback-message""></div><div class=""stimulus-container""><div class=""position-wrapper""><div class=""key-label"">S</div><div class=""position-box "" data-position=""0""></div></div><div class=""position-wrapper""><div class=""key-label"">D</div><div class=""position-box "" data-position=""1""></div></div><div class=""position-wrapper""><div class=""key-label"">F</div><div class=""position-box "" data-position=""2""></div></div><div class=""position-wrapper""><div class=""key-label"">J</div><div class=""position-box "" data-position=""3""></div></div><div class=""position-wrapper""><div class=""key-label"">K</div><div class=""position-box active"" data-position=""4""></div></div><div class=""position-wrapper""><div class=""key-label"">L</div><div class=""position-box "" data-position=""5""></div></div></div><div class=""finger-diagram-container"">
			<img src=""assets/finger-diagrams/finger-diagram-6pos.png"" alt=""Finger position guide"" class=""finger-diagram"" />
		</div>","k","4","k","true","","","","",""
"","","","","","practice","feedback","html-keyboard-response","31","48286","0.0-12.0-0.0-1.0","P_76e9938d35766a572c6ffa85c5605204cb461d529c7fcde090d2be5769b23ef3","6975d475053a04ec2a824d54","6975d5a7604ee2dc7b66e285","6","[[0.22736964714484262,1.4389615966943733e-11,0,0.20984759685851753,0.06520404977486319,0.4975787062073871],[7.505216870414609e-13,1.4258841105232542e-11,0.9882196383546002,0.011780361555829953,5.905431977191516e-11,1.550626783568228e-11],[0.2273234356477396,1.4382488357004985e-11,0,0.20981619168212484,0.06519783227405394,0.49766254038169905],[0.27410027860516395,1.4381596613135696e-11,0.011768424314658198,0.21370829276791165,0.4956618083854289,0.004761195912455649],[0.004151376708677999,0.8541519975946235,0,0.14169662567971403,1.363513216867255e-12,1.562112260929659e-11],[0.26705763578310293,0.14585056634172525,0,0.21315316928175454,0.3739386285926206,7.966607020055105e-13]]","[1.7164586615480488,0.09237731181353706,1.7163490803009984,1.6016287006430234,0.6265709654819551,1.9197818344737418]","[2,5,3,4,1,2,0,3,0,3,4,3,4,1,2,0,5,0,4,1,2,0,5,4,1,2,0,3,4,1,2,5,4,3,4,1,2,5,0,5,0,0,5,4,1,2,5,3,3,3,0,0,5,1,2,3,0,5,0,4,1,2,5,4,1,2,3,4,1,2,0,0,5,4,1,2,5,0,3,3,3,0,5,0,0,0,5,4,3,0,0,3,4,1,2,5,4,1,2,5,4,3,4,3,4,1,2,5,1,2,0,0,3,4,1,2,0,3,4,3,4,1,2,5,4,1,2,3,0,3,3,3,4,1,2,3,3,4,1,2,5,4,1,2,0,3,0,5,4,3,4,1,2,5,3,0,5,0,0,5,0,5,4,1,2,5,3,4,1,2,4,1,2,5,0,3,4,1,2,5,4,3,4,1,2,5,0,0,5,0,3,4,1,2,5,4,1,2,5,4,1,2,5,1,2,0,0,5,4,1,2,5,3,4,3,4,1,2,5,3,4,1,2,5,1,2,5,4,1,2,0,5,4,1,2,5,4,1,2,5,1,2,0,3,0,5,1,2,3,3,4,1,2,5,0,5,3,4,1,2,5,4,1,2,0,5,1,2,0,4,1,2,5,1,2,3,4,1,2,5,4,1,2,5,0,5,1,2,5,0,5,1,2,0,0,5,4,1,2,5,0,0,3,4,3,4,1,2,5,4,1,2,0,5,4,3,4,3,3,4,1,2,4,1,3,0,5,4,1,3,3,3,0,5,4,1,2,5,1,2,0,0,0,0,5,4,1,2,4,1,2,3,4,3,4,3,3,0,0,3,4,1,2,3,3,4,1,2,5,0,3,0,3,3,4,1,2,3,4,1,2,5,4,1,2,3,4,1,2,3,4,1,2,5,0,5,3,3,0,0,3,4,3,0,3,0,0,5,0,5,3,4,1,2,0,3,4,1,2,3]","60","420","12","null","","<div class=""feedback-message""><div class=""feedback-correct"">✓</div></div><div class=""stimulus-container""><div class=""position-wrapper""><div class=""key-label"">S</div><div class=""position-box "" data-position=""0""></div></div><div class=""position-wrapper""><div class=""key-label"">D</div><div class=""position-box "" data-position=""1""></div></div><div class=""position-wrapper""><div class=""key-label"">F</div><div class=""position-box "" data-position=""2""></div></div><div class=""position-wrapper""><div class=""key-label"">J</div><div class=""position-box "" data-position=""3""></div></div><div class=""position-wrapper""><div class=""key-label"">K</div><div class=""position-box active"" data-position=""4""></div></div><div class=""position-wrapper""><div class=""key-label"">L</div><div class=""position-box "" data-position=""5""></div></div></div><div class=""finger-diagram-container"">
			<img src=""assets/finger-diagrams/finger-diagram-6pos.png"" alt=""Finger position guide"" class=""finger-diagram"" />
		</div>","null","","","","","","","",""
"","","","","","practice","rsi","html-keyboard-response","32","48410","0.0-12.0-1.0","P_76e9938d35766a572c6ffa85c5605204cb461d529c7fcde090d2be5769b23ef3","6975d475053a04ec2a824d54","6975d5a7604ee2dc7b66e285","6","[[0.22736964714484262,1.4389615966943733e-11,0,0.20984759685851753,0.06520404977486319,0.4975787062073871],[7.505216870414609e-13,1.4258841105232542e-11,0.9882196383546002,0.011780361555829953,5.905431977191516e-11,1.550626783568228e-11],[0.2273234356477396,1.4382488357004985e-11,0,0.20981619168212484,0.06519783227405394,0.49766254038169905],[0.27410027860516395,1.4381596613135696e-11,0.011768424314658198,0.21370829276791165,0.4956618083854289,0.004761195912455649],[0.004151376708677999,0.8541519975946235,0,0.14169662567971403,1.363513216867255e-12,1.562112260929659e-11],[0.26705763578310293,0.14585056634172525,0,0.21315316928175454,0.3739386285926206,7.966607020055105e-13]]","[1.7164586615480488,0.09237731181353706,1.7163490803009984,1.6016287006430234,0.6265709654819551,1.9197818344737418]","[2,5,3,4,1,2,0,3,0,3,4,3,4,1,2,0,5,0,4,1,2,0,5,4,1,2,0,3,4,1,2,5,4,3,4,1,2,5,0,5,0,0,5,4,1,2,5,3,3,3,0,0,5,1,2,3,0,5,0,4,1,2,5,4,1,2,3,4,1,2,0,0,5,4,1,2,5,0,3,3,3,0,5,0,0,0,5,4,3,0,0,3,4,1,2,5,4,1,2,5,4,3,4,3,4,1,2,5,1,2,0,0,3,4,1,2,0,3,4,3,4,1,2,5,4,1,2,3,0,3,3,3,4,1,2,3,3,4,1,2,5,4,1,2,0,3,0,5,4,3,4,1,2,5,3,0,5,0,0,5,0,5,4,1,2,5,3,4,1,2,4,1,2,5,0,3,4,1,2,5,4,3,4,1,2,5,0,0,5,0,3,4,1,2,5,4,1,2,5,4,1,2,5,1,2,0,0,5,4,1,2,5,3,4,3,4,1,2,5,3,4,1,2,5,1,2,5,4,1,2,0,5,4,1,2,5,4,1,2,5,1,2,0,3,0,5,1,2,3,3,4,1,2,5,0,5,3,4,1,2,5,4,1,2,0,5,1,2,0,4,1,2,5,1,2,3,4,1,2,5,4,1,2,5,0,5,1,2,5,0,5,1,2,0,0,5,4,1,2,5,0,0,3,4,3,4,1,2,5,4,1,2,0,5,4,3,4,3,3,4,1,2,4,1,3,0,5,4,1,3,3,3,0,5,4,1,2,5,1,2,0,0,0,0,5,4,1,2,4,1,2,3,4,3,4,3,3,0,0,3,4,1,2,3,3,4,1,2,5,0,3,0,3,3,4,1,2,3,4,1,2,5,4,1,2,3,4,1,2,3,4,1,2,5,0,5,3,3,0,0,3,4,3,0,3,0,0,5,0,5,3,4,1,2,0,3,4,1,2,3]","60","420","12","null","","<div class=""feedback-message""></div><div class=""stimulus-container""><div class=""position-wrapper""><div class=""key-label"">S</div><div class=""position-box "" data-position=""0""></div></div><div class=""position-wrapper""><div class=""key-label"">D</div><div class=""position-box "" data-position=""1""></div></div><div class=""position-wrapper""><div class=""key-label"">F</div><div class=""position-box "" data-position=""2""></div></div><div class=""position-wrapper""><div class=""key-label"">J</div><div class=""position-box "" data-position=""3""></div></div><div class=""position-wrapper""><div class=""key-label"">K</div><div class=""position-box "" data-position=""4""></div></div><div class=""position-wrapper""><div class=""key-label"">L</div><div class=""position-box "" data-position=""5""></div></div></div><div class=""finger-diagram-container"">
			<img src=""assets/finger-diagrams/finger-diagram-6pos.png"" alt=""Finger position guide"" class=""finger-diagram"" />
		</div>","null","","","","","","","",""
"","","","","","practice","stimulus","html-keyboard-response","33","49132","0.0-13.0-0.0-0.0","P_76e9938d35766a572c6ffa85c5605204cb461d529c7fcde090d2be5769b23ef3","6975d475053a04ec2a824d54","6975d5a7604ee2dc7b66e285","6","[[0.22736964714484262,1.4389615966943733e-11,0,0.20984759685851753,0.06520404977486319,0.4975787062073871],[7.505216870414609e-13,1.4258841105232542e-11,0.9882196383546002,0.011780361555829953,5.905431977191516e-11,1.550626783568228e-11],[0.2273234356477396,1.4382488357004985e-11,0,0.20981619168212484,0.06519783227405394,0.49766254038169905],[0.27410027860516395,1.4381596613135696e-11,0.011768424314658198,0.21370829276791165,0.4956618083854289,0.004761195912455649],[0.004151376708677999,0.8541519975946235,0,0.14169662567971403,1.363513216867255e-12,1.562112260929659e-11],[0.26705763578310293,0.14585056634172525,0,0.21315316928175454,0.3739386285926206,7.966607020055105e-13]]","[1.7164586615480488,0.09237731181353706,1.7163490803009984,1.6016287006430234,0.6265709654819551,1.9197818344737418]","[2,5,3,4,1,2,0,3,0,3,4,3,4,1,2,0,5,0,4,1,2,0,5,4,1,2,0,3,4,1,2,5,4,3,4,1,2,5,0,5,0,0,5,4,1,2,5,3,3,3,0,0,5,1,2,3,0,5,0,4,1,2,5,4,1,2,3,4,1,2,0,0,5,4,1,2,5,0,3,3,3,0,5,0,0,0,5,4,3,0,0,3,4,1,2,5,4,1,2,5,4,3,4,3,4,1,2,5,1,2,0,0,3,4,1,2,0,3,4,3,4,1,2,5,4,1,2,3,0,3,3,3,4,1,2,3,3,4,1,2,5,4,1,2,0,3,0,5,4,3,4,1,2,5,3,0,5,0,0,5,0,5,4,1,2,5,3,4,1,2,4,1,2,5,0,3,4,1,2,5,4,3,4,1,2,5,0,0,5,0,3,4,1,2,5,4,1,2,5,4,1,2,5,1,2,0,0,5,4,1,2,5,3,4,3,4,1,2,5,3,4,1,2,5,1,2,5,4,1,2,0,5,4,1,2,5,4,1,2,5,1,2,0,3,0,5,1,2,3,3,4,1,2,5,0,5,3,4,1,2,5,4,1,2,0,5,1,2,0,4,1,2,5,1,2,3,4,1,2,5,4,1,2,5,0,5,1,2,5,0,5,1,2,0,0,5,4,1,2,5,0,0,3,4,3,4,1,2,5,4,1,2,0,5,4,3,4,3,3,4,1,2,4,1,3,0,5,4,1,3,3,3,0,5,4,1,2,5,1,2,0,0,0,0,5,4,1,2,4,1,2,3,4,3,4,3,3,0,0,3,4,1,2,3,3,4,1,2,5,0,3,0,3,3,4,1,2,3,4,1,2,5,4,1,2,3,4,1,2,3,4,1,2,5,0,5,3,3,0,0,3,4,3,0,3,0,0,5,0,5,3,4,1,2,0,3,4,1,2,3]","60","420","12","719","","<div class=""feedback-message""></div><div class=""stimulus-container""><div class=""position-wrapper""><div class=""key-label"">S</div><div class=""position-box "" data-position=""0""></div></div><div class=""position-wrapper""><div class=""key-label"">D</div><div class=""position-box "" data-position=""1""></div></div><div class=""position-wrapper""><div class=""key-label"">F</div><div class=""position-box active"" data-position=""2""></div></div><div class=""position-wrapper""><div class=""key-label"">J</div><div class=""position-box "" data-position=""3""></div></div><div class=""position-wrapper""><div class=""key-label"">K</div><div class=""position-box "" data-position=""4""></div></div><div class=""position-wrapper""><div class=""key-label"">L</div><div class=""position-box "" data-position=""5""></div></div></div><div class=""finger-diagram-container"">
			<img src=""assets/finger-diagrams/finger-diagram-6pos.png"" alt=""Finger position guide"" class=""finger-diagram"" />
		</div>","f","2","f","true","","","","",""
