"success","timeout","failed_images","failed_audio","failed_video","phase","experiment_trial_type","trial_type","trial_index","time_elapsed","internal_node_id","subject_id","study_id","session_id","matrix_size","transition_matrix","conditional_entropies","sequence","trials_per_block","total_trials","practice_trials","rt","view_history","stimulus","response","position","correct_key","correct","block","trial_in_block","overall_trial","question_order","questionnaire_item"
"true","false","[]","[]","[]","preload","preload","preload","0","862","0.0-0.0","P_d232cdc08347950b409ee14fd2637d7c719f23ca35ed2ebaa5839673917fa8fb","6975d475053a04ec2a824d54","6975d6e5ed5452be53e382c1","4","[[0.060260165899335215,0.701326755417172,0.23841307868349276,0],[0.0000023008162070389276,0,0.027367528309657305,0.9726301708741357],[0.35387827489883494,0.2986732967287947,0.3474484283723703,0],[0.5858593039421993,0,0.3867710069645787,0.02736968909322194]]","[1.0963305126500609,0.18105958573962463,1.5809472755632945,1.1240499164293296]","[3,2,1,3,0,2,1,3,0,2,1,3,2,2,0,1,3,2,0,1,3,0,1,3,0,1,3,0,1,3,2,1,2,1,3,2,1,3,2,1,3,2,2,1,3,2,0,1,3,2,0,2,0,2,0,2,0,0,1,3,2,0,2,2,1,3,2,2,1,3,0,1,3,2,1,3,0,1,2,2,1,2,0,1,3,2,2,2,2,2,2,0,1,3,2,0,1,3,2,0,1,3,0,1,3,0,1,3,0,1,3,2,2,1,3,0,1,3,0,1,3,0,1,3,0,2,0,1,3,0,1,3,2,0,0,2,1,3,0,1,3,0,1,3,0,1,3,2,0,1,3,2,1,3,3,0,1,3,0,2,1,3,2,2,2,2,0,1,3,0,1,3,2,1,3,0,1,3,2,0,2,2,2,0,2,2,0,1,2,0,1,3,0,1,3,0,1,3,0,2,2,0,1,3,0,2,1,3,2,0,0,1,3,2,1,3,0,1,3,2,1,3,0,1,3,2,0,1,3,0,1,3,0,0,1,3,2,1,3,2,1,3,0,0,1,3,0,0,1,3,2,0,1,3,0,1,3,2,1,3,2,1,3,0,1,3,2,0,2,0,2,2,2,2,0,0,1,3,0,1]","40","280","8","","","","","","","","","","","",""
"true","","","","","fullscreen","fullscreen","fullscreen","1","6332","0.0-1.0","P_d232cdc08347950b409ee14fd2637d7c719f23ca35ed2ebaa5839673917fa8fb","6975d475053a04ec2a824d54","6975d6e5ed5452be53e382c1","4","[[0.060260165899335215,0.701326755417172,0.23841307868349276,0],[0.0000023008162070389276,0,0.027367528309657305,0.9726301708741357],[0.35387827489883494,0.2986732967287947,0.3474484283723703,0],[0.5858593039421993,0,0.3867710069645787,0.02736968909322194]]","[1.0963305126500609,0.18105958573962463,1.5809472755632945,1.1240499164293296]","[3,2,1,3,0,2,1,3,0,2,1,3,2,2,0,1,3,2,0,1,3,0,1,3,0,1,3,0,1,3,2,1,2,1,3,2,1,3,2,1,3,2,2,1,3,2,0,1,3,2,0,2,0,2,0,2,0,0,1,3,2,0,2,2,1,3,2,2,1,3,0,1,3,2,1,3,0,1,2,2,1,2,0,1,3,2,2,2,2,2,2,0,1,3,2,0,1,3,2,0,1,3,0,1,3,0,1,3,0,1,3,2,2,1,3,0,1,3,0,1,3,0,1,3,0,2,0,1,3,0,1,3,2,0,0,2,1,3,0,1,3,0,1,3,0,1,3,2,0,1,3,2,1,3,3,0,1,3,0,2,1,3,2,2,2,2,0,1,3,0,1,3,2,1,3,0,1,3,2,0,2,2,2,0,2,2,0,1,2,0,1,3,0,1,3,0,1,3,0,2,2,0,1,3,0,2,1,3,2,0,0,1,3,2,1,3,0,1,3,2,1,3,0,1,3,2,0,1,3,0,1,3,0,0,1,3,2,1,3,2,1,3,0,0,1,3,0,0,1,3,2,0,1,3,0,1,3,2,1,3,2,1,3,0,1,3,2,0,2,0,2,2,2,2,0,0,1,3,0,1]","40","280","8","4460","","","","","","","","","","",""
"","","","","","instructions","instructions","instructions","2","152007","0.0-2.0","P_d232cdc08347950b409ee14fd2637d7c719f23ca35ed2ebaa5839673917fa8fb","6975d475053a04ec2a824d54","6975d6e5ed5452be53e382c1","4","[[0.060260165899335215,0.701326755417172,0.23841307868349276,0],[0.0000023008162070389276,0,0.027367528309657305,0.9726301708741357],[0.35387827489883494,0.2986732967287947,0.3474484283723703,0],[0.5858593039421993,0,0.3867710069645787,0.02736968909322194]]","[1.0963305126500609,0.18105958573962463,1.5809472755632945,1.1240499164293296]","[3,2,1,3,0,2,1,3,0,2,1,3,2,2,0,1,3,2,0,1,3,0,1,3,0,1,3,0,1,3,2,1,2,1,3,2,1,3,2,1,3,2,2,1,3,2,0,1,3,2,0,2,0,2,0,2,0,0,1,3,2,0,2,2,1,3,2,2,1,3,0,1,3,2,1,3,0,1,2,2,1,2,0,1,3,2,2,2,2,2,2,0,1,3,2,0,1,3,2,0,1,3,0,1,3,0,1,3,0,1,3,2,2,1,3,0,1,3,0,1,3,0,1,3,0,2,0,1,3,0,1,3,2,0,0,2,1,3,0,1,3,0,1,3,0,1,3,2,0,1,3,2,1,3,3,0,1,3,0,2,1,3,2,2,2,2,0,1,3,0,1,3,2,1,3,0,1,3,2,0,2,2,2,0,2,2,0,1,2,0,1,3,0,1,3,0,1,3,0,2,2,0,1,3,0,2,1,3,2,0,0,1,3,2,1,3,0,1,3,2,1,3,0,1,3,2,0,1,3,0,1,3,0,0,1,3,2,1,3,2,1,3,0,0,1,3,0,0,1,3,2,0,1,3,0,1,3,2,1,3,2,1,3,0,1,3,2,0,2,0,2,2,2,2,0,0,1,3,0,1]","40","280","8","145672","[{""page_index"":0,""viewing_time"":23013},{""page_index"":1,""viewing_time"":76682},{""page_index"":2,""viewing_time"":39192},{""page_index"":3,""viewing_time"":6784}]","","","","","","","","","",""
"","","","","","practice","stimulus","html-keyboard-response","3","154207","0.0-3.0-0.0-0.0","P_d232cdc08347950b409ee14fd2637d7c719f23ca35ed2ebaa5839673917fa8fb","6975d475053a04ec2a824d54","6975d6e5ed5452be53e382c1","4","[[0.060260165899335215,0.701326755417172,0.23841307868349276,0],[0.0000023008162070389276,0,0.027367528309657305,0.9726301708741357],[0.35387827489883494,0.2986732967287947,0.3474484283723703,0],[0.5858593039421993,0,0.3867710069645787,0.02736968909322194]]","[1.0963305126500609,0.18105958573962463,1.5809472755632945,1.1240499164293296]","[3,2,1,3,0,2,1,3,0,2,1,3,2,2,0,1,3,2,0,1,3,0,1,3,0,1,3,0,1,3,2,1,2,1,3,2,1,3,2,1,3,2,2,1,3,2,0,1,3,2,0,2,0,2,0,2,0,0,1,3,2,0,2,2,1,3,2,2,1,3,0,1,3,2,1,3,0,1,2,2,1,2,0,1,3,2,2,2,2,2,2,0,1,3,2,0,1,3,2,0,1,3,0,1,3,0,1,3,0,1,3,2,2,1,3,0,1,3,0,1,3,0,1,3,0,2,0,1,3,0,1,3,2,0,0,2,1,3,0,1,3,0,1,3,0,1,3,2,0,1,3,2,1,3,3,0,1,3,0,2,1,3,2,2,2,2,0,1,3,0,1,3,2,1,3,0,1,3,2,0,2,2,2,0,2,2,0,1,2,0,1,3,0,1,3,0,1,3,0,2,2,0,1,3,0,2,1,3,2,0,0,1,3,2,1,3,0,1,3,2,1,3,0,1,3,2,0,1,3,0,1,3,0,0,1,3,2,1,3,2,1,3,0,0,1,3,0,0,1,3,2,0,1,3,0,1,3,2,1,3,2,1,3,0,1,3,2,0,2,0,2,2,2,2,0,0,1,3,0,1]","40","280","8","2198","","<div class=""feedback-message""></div><div class=""stimulus-container""><div class=""position-wrapper""><div class=""key-label"">D</div><div class=""position-box "" data-position=""0""></div></div><div class=""position-wrapper""><div class=""key-label"">F</div><div class=""position-box active"" data-position=""1""></div></div><div class=""position-wrapper""><div class=""key-label"">J</div><div class=""position-box "" data-position=""2""></div></div><div class=""position-wrapper""><div class=""key-label"">K</div><div class=""position-box "" data-position=""3""></div></div></div><div class=""finger-diagram-container"">
			<img src=""assets/finger-diagrams/finger-diagram-4pos.png"" alt=""Finger position guide"" class=""finger-diagram"" />
		</div>","f","1","f","true","","","","",""
"","","","","","practice","feedback","html-keyboard-response","4","154417","0.0-3.0-0.0-1.0","P_d232cdc08347950b409ee14fd2637d7c719f23ca35ed2ebaa5839673917fa8fb","6975d475053a04ec2a824d54","6975d6e5ed5452be53e382c1","4","[[0.060260165899335215,0.701326755417172,0.23841307868349276,0],[0.0000023008162070389276,0,0.027367528309657305,0.9726301708741357],[0.35387827489883494,0.2986732967287947,0.3474484283723703,0],[0.5858593039421993,0,0.3867710069645787,0.02736968909322194]]","[1.0963305126500609,0.18105958573962463,1.5809472755632945,1.1240499164293296]","[3,2,1,3,0,2,1,3,0,2,1,3,2,2,0,1,3,2,0,1,3,0,1,3,0,1,3,0,1,3,2,1,2,1,3,2,1,3,2,1,3,2,2,1,3,2,0,1,3,2,0,2,0,2,0,2,0,0,1,3,2,0,2,2,1,3,2,2,1,3,0,1,3,2,1,3,0,1,2,2,1,2,0,1,3,2,2,2,2,2,2,0,1,3,2,0,1,3,2,0,1,3,0,1,3,0,1,3,0,1,3,2,2,1,3,0,1,3,0,1,3,0,1,3,0,2,0,1,3,0,1,3,2,0,0,2,1,3,0,1,3,0,1,3,0,1,3,2,0,1,3,2,1,3,3,0,1,3,0,2,1,3,2,2,2,2,0,1,3,0,1,3,2,1,3,0,1,3,2,0,2,2,2,0,2,2,0,1,2,0,1,3,0,1,3,0,1,3,0,2,2,0,1,3,0,2,1,3,2,0,0,1,3,2,1,3,0,1,3,2,1,3,0,1,3,2,0,1,3,0,1,3,0,0,1,3,2,1,3,2,1,3,0,0,1,3,0,0,1,3,2,0,1,3,0,1,3,2,1,3,2,1,3,0,1,3,2,0,2,0,2,2,2,2,0,0,1,3,0,1]","40","280","8","null","","<div class=""feedback-message""><div class=""feedback-correct"">✓</div></div><div class=""stimulus-container""><div class=""position-wrapper""><div class=""key-label"">D</div><div class=""position-box "" data-position=""0""></div></div><div class=""position-wrapper""><div class=""key-label"">F</div><div class=""position-box active"" data-position=""1""></div></div><div class=""position-wrapper""><div class=""key-label"">J</div><div class=""position-box "" data-position=""2""></div></div><div class=""position-wrapper""><div class=""key-label"">K</div><div class=""position-box "" data-position=""3""></div></div></div><div class=""finger-diagram-container"">
			<img src=""assets/finger-diagrams/finger-diagram-4pos.png"" alt=""Finger position guide"" class=""finger-diagram"" />
		</div>","null","","","","","","","",""
"","","","","","practice","rsi","html-keyboard-response","5","154550","0.0-3.0-1.0","P_d232cdc08347950b409ee14fd2637d7c719f23ca35ed2ebaa5839673917fa8fb","6975d475053a04ec2a824d54","6975d6e5ed5452be53e382c1","4","[[0.060260165899335215,0.701326755417172,0.23841307868349276,0],[0.0000023008162070389276,0,0.027367528309657305,0.9726301708741357],[0.35387827489883494,0.2986732967287947,0.3474484283723703,0],[0.5858593039421993,0,0.3867710069645787,0.02736968909322194]]","[1.0963305126500609,0.18105958573962463,1.5809472755632945,1.1240499164293296]","[3,2,1,3,0,2,1,3,0,2,1,3,2,2,0,1,3,2,0,1,3,0,1,3,0,1,3,0,1,3,2,1,2,1,3,2,1,3,2,1,3,2,2,1,3,2,0,1,3,2,0,2,0,2,0,2,0,0,1,3,2,0,2,2,1,3,2,2,1,3,0,1,3,2,1,3,0,1,2,2,1,2,0,1,3,2,2,2,2,2,2,0,1,3,2,0,1,3,2,0,1,3,0,1,3,0,1,3,0,1,3,2,2,1,3,0,1,3,0,1,3,0,1,3,0,2,0,1,3,0,1,3,2,0,0,2,1,3,0,1,3,0,1,3,0,1,3,2,0,1,3,2,1,3,3,0,1,3,0,2,1,3,2,2,2,2,0,1,3,0,1,3,2,1,3,0,1,3,2,0,2,2,2,0,2,2,0,1,2,0,1,3,0,1,3,0,1,3,0,2,2,0,1,3,0,2,1,3,2,0,0,1,3,2,1,3,0,1,3,2,1,3,0,1,3,2,0,1,3,0,1,3,0,0,1,3,2,1,3,2,1,3,0,0,1,3,0,0,1,3,2,0,1,3,0,1,3,2,1,3,2,1,3,0,1,3,2,0,2,0,2,2,2,2,0,0,1,3,0,1]","40","280","8","null","","<div class=""feedback-message""></div><div class=""stimulus-container""><div class=""position-wrapper""><div class=""key-label"">D</div><div class=""position-box "" data-position=""0""></div></div><div class=""position-wrapper""><div class=""key-label"">F</div><div class=""position-box "" data-position=""1""></div></div><div class=""position-wrapper""><div class=""key-label"">J</div><div class=""position-box "" data-position=""2""></div></div><div class=""position-wrapper""><div class=""key-label"">K</div><div class=""position-box "" data-position=""3""></div></div></div><div class=""finger-diagram-container"">
			<img src=""assets/finger-diagrams/finger-diagram-4pos.png"" alt=""Finger position guide"" class=""finger-diagram"" />
		</div>","null","","","","","","","",""
"","","","","","practice","stimulus","html-keyboard-response","6","155219","0.0-4.0-0.0-0.0","P_d232cdc08347950b409ee14fd2637d7c719f23ca35ed2ebaa5839673917fa8fb","6975d475053a04ec2a824d54","6975d6e5ed5452be53e382c1","4","[[0.060260165899335215,0.701326755417172,0.23841307868349276,0],[0.0000023008162070389276,0,0.027367528309657305,0.9726301708741357],[0.35387827489883494,0.2986732967287947,0.3474484283723703,0],[0.5858593039421993,0,0.3867710069645787,0.02736968909322194]]","[1.0963305126500609,0.18105958573962463,1.5809472755632945,1.1240499164293296]","[3,2,1,3,0,2,1,3,0,2,1,3,2,2,0,1,3,2,0,1,3,0,1,3,0,1,3,0,1,3,2,1,2,1,3,2,1,3,2,1,3,2,2,1,3,2,0,1,3,2,0,2,0,2,0,2,0,0,1,3,2,0,2,2,1,3,2,2,1,3,0,1,3,2,1,3,0,1,2,2,1,2,0,1,3,2,2,2,2,2,2,0,1,3,2,0,1,3,2,0,1,3,0,1,3,0,1,3,0,1,3,2,2,1,3,0,1,3,0,1,3,0,1,3,0,2,0,1,3,0,1,3,2,0,0,2,1,3,0,1,3,0,1,3,0,1,3,2,0,1,3,2,1,3,3,0,1,3,0,2,1,3,2,2,2,2,0,1,3,0,1,3,2,1,3,0,1,3,2,0,2,2,2,0,2,2,0,1,2,0,1,3,0,1,3,0,1,3,0,2,2,0,1,3,0,2,1,3,2,0,0,1,3,2,1,3,0,1,3,2,1,3,0,1,3,2,0,1,3,0,1,3,0,0,1,3,2,1,3,2,1,3,0,0,1,3,0,0,1,3,2,0,1,3,0,1,3,2,1,3,2,1,3,0,1,3,2,0,2,0,2,2,2,2,0,0,1,3,0,1]","40","280","8","666","","<div class=""feedback-message""></div><div class=""stimulus-container""><div class=""position-wrapper""><div class=""key-label"">D</div><div class=""position-box "" data-position=""0""></div></div><div class=""position-wrapper""><div class=""key-label"">F</div><div class=""position-box "" data-position=""1""></div></div><div class=""position-wrapper""><div class=""key-label"">J</div><div class=""position-box active"" data-position=""2""></div></div><div class=""position-wrapper""><div class=""key-label"">K</div><div class=""position-box "" data-position=""3""></div></div></div><div class=""finger-diagram-container"">
			<img src=""assets/finger-diagrams/finger-diagram-4pos.png"" alt=""Finger position guide"" class=""finger-diagram"" />
		</div>","j","2","j","true","","","","",""
"","","","","","practice","feedback","html-keyboard-response","7","155433","0.0-4.0-0.0-1.0","P_d232cdc08347950b409ee14fd2637d7c719f23ca35ed2ebaa5839673917fa8fb","6975d475053a04ec2a824d54","6975d6e5ed5452be53e382c1","4","[[0.060260165899335215,0.701326755417172,0.23841307868349276,0],[0.0000023008162070389276,0,0.027367528309657305,0.9726301708741357],[0.35387827489883494,0.2986732967287947,0.3474484283723703,0],[0.5858593039421993,0,0.3867710069645787,0.02736968909322194]]","[1.0963305126500609,0.18105958573962463,1.5809472755632945,1.1240499164293296]","[3,2,1,3,0,2,1,3,0,2,1,3,2,2,0,1,3,2,0,1,3,0,1,3,0,1,3,0,1,3,2,1,2,1,3,2,1,3,2,1,3,2,2,1,3,2,0,1,3,2,0,2,0,2,0,2,0,0,1,3,2,0,2,2,1,3,2,2,1,3,0,1,3,2,1,3,0,1,2,2,1,2,0,1,3,2,2,2,2,2,2,0,1,3,2,0,1,3,2,0,1,3,0,1,3,0,1,3,0,1,3,2,2,1,3,0,1,3,0,1,3,0,1,3,0,2,0,1,3,0,1,3,2,0,0,2,1,3,0,1,3,0,1,3,0,1,3,2,0,1,3,2,1,3,3,0,1,3,0,2,1,3,2,2,2,2,0,1,3,0,1,3,2,1,3,0,1,3,2,0,2,2,2,0,2,2,0,1,2,0,1,3,0,1,3,0,1,3,0,2,2,0,1,3,0,2,1,3,2,0,0,1,3,2,1,3,0,1,3,2,1,3,0,1,3,2,0,1,3,0,1,3,0,0,1,3,2,1,3,2,1,3,0,0,1,3,0,0,1,3,2,0,1,3,0,1,3,2,1,3,2,1,3,0,1,3,2,0,2,0,2,2,2,2,0,0,1,3,0,1]","40","280","8","null","","<div class=""feedback-message""><div class=""feedback-correct"">✓</div></div><div class=""stimulus-container""><div class=""position-wrapper""><div class=""key-label"">D</div><div class=""position-box "" data-position=""0""></div></div><div class=""position-wrapper""><div class=""key-label"">F</div><div class=""position-box "" data-position=""1""></div></div><div class=""position-wrapper""><div class=""key-label"">J</div><div class=""position-box active"" data-position=""2""></div></div><div class=""position-wrapper""><div class=""key-label"">K</div><div class=""position-box "" data-position=""3""></div></div></div><div class=""finger-diagram-container"">
			<img src=""assets/finger-diagrams/finger-diagram-4pos.png"" alt=""Finger position guide"" class=""finger-diagram"" />
		</div>","null","","","","","","","",""
"","","","","","practice","rsi","html-keyboard-response","8","155566","0.0-4.0-1.0","P_d232cdc08347950b409ee14fd2637d7c719f23ca35ed2ebaa5839673917fa8fb","6975d475053a04ec2a824d54","6975d6e5ed5452be53e382c1","4","[[0.060260165899335215,0.701326755417172,0.23841307868349276,0],[0.0000023008162070389276,0,0.027367528309657305,0.9726301708741357],[0.35387827489883494,0.2986732967287947,0.3474484283723703,0],[0.5858593039421993,0,0.3867710069645787,0.02736968909322194]]","[1.0963305126500609,0.18105958573962463,1.5809472755632945,1.1240499164293296]","[3,2,1,3,0,2,1,3,0,2,1,3,2,2,0,1,3,2,0,1,3,0,1,3,0,1,3,0,1,3,2,1,2,1,3,2,1,3,2,1,3,2,2,1,3,2,0,1,3,2,0,2,0,2,0,2,0,0,1,3,2,0,2,2,1,3,2,2,1,3,0,1,3,2,1,3,0,1,2,2,1,2,0,1,3,2,2,2,2,2,2,0,1,3,2,0,1,3,2,0,1,3,0,1,3,0,1,3,0,1,3,2,2,1,3,0,1,3,0,1,3,0,1,3,0,2,0,1,3,0,1,3,2,0,0,2,1,3,0,1,3,0,1,3,0,1,3,2,0,1,3,2,1,3,3,0,1,3,0,2,1,3,2,2,2,2,0,1,3,0,1,3,2,1,3,0,1,3,2,0,2,2,2,0,2,2,0,1,2,0,1,3,0,1,3,0,1,3,0,2,2,0,1,3,0,2,1,3,2,0,0,1,3,2,1,3,0,1,3,2,1,3,0,1,3,2,0,1,3,0,1,3,0,0,1,3,2,1,3,2,1,3,0,0,1,3,0,0,1,3,2,0,1,3,0,1,3,2,1,3,2,1,3,0,1,3,2,0,2,0,2,2,2,2,0,0,1,3,0,1]","40","280","8","null","","<div class=""feedback-message""></div><div class=""stimulus-container""><div class=""position-wrapper""><div class=""key-label"">D</div><div class=""position-box "" data-position=""0""></div></div><div class=""position-wrapper""><div class=""key-label"">F</div><div class=""position-box "" data-position=""1""></div></div><div class=""position-wrapper""><div class=""key-label"">J</div><div class=""position-box "" data-position=""2""></div></div><div class=""position-wrapper""><div class=""key-label"">K</div><div class=""position-box "" data-position=""3""></div></div></div><div class=""finger-diagram-container"">
			<img src=""assets/finger-diagrams/finger-diagram-4pos.png"" alt=""Finger position guide"" class=""finger-diagram"" />
		</div>","null","","","","","","","",""
"","","","","","practice","stimulus","html-keyboard-response","9","156104","0.0-5.0-0.0-0.0","P_d232cdc08347950b409ee14fd2637d7c719f23ca35ed2ebaa5839673917fa8fb","6975d475053a04ec2a824d54","6975d6e5ed5452be53e382c1","4","[[0.060260165899335215,0.701326755417172,0.23841307868349276,0],[0.0000023008162070389276,0,0.027367528309657305,0.9726301708741357],[0.35387827489883494,0.2986732967287947,0.3474484283723703,0],[0.5858593039421993,0,0.3867710069645787,0.02736968909322194]]","[1.0963305126500609,0.18105958573962463,1.5809472755632945,1.1240499164293296]","[3,2,1,3,0,2,1,3,0,2,1,3,2,2,0,1,3,2,0,1,3,0,1,3,0,1,3,0,1,3,2,1,2,1,3,2,1,3,2,1,3,2,2,1,3,2,0,1,3,2,0,2,0,2,0,2,0,0,1,3,2,0,2,2,1,3,2,2,1,3,0,1,3,2,1,3,0,1,2,2,1,2,0,1,3,2,2,2,2,2,2,0,1,3,2,0,1,3,2,0,1,3,0,1,3,0,1,3,0,1,3,2,2,1,3,0,1,3,0,1,3,0,1,3,0,2,0,1,3,0,1,3,2,0,0,2,1,3,0,1,3,0,1,3,0,1,3,2,0,1,3,2,1,3,3,0,1,3,0,2,1,3,2,2,2,2,0,1,3,0,1,3,2,1,3,0,1,3,2,0,2,2,2,0,2,2,0,1,2,0,1,3,0,1,3,0,1,3,0,2,2,0,1,3,0,2,1,3,2,0,0,1,3,2,1,3,0,1,3,2,1,3,0,1,3,2,0,1,3,0,1,3,0,0,1,3,2,1,3,2,1,3,0,0,1,3,0,0,1,3,2,0,1,3,0,1,3,2,1,3,2,1,3,0,1,3,2,0,2,0,2,2,2,2,0,0,1,3,0,1]","40","280","8","537","","<div class=""feedback-message""></div><div class=""stimulus-container""><div class=""position-wrapper""><div class=""key-label"">D</div><div class=""position-box active"" data-position=""0""></div></div><div class=""position-wrapper""><div class=""key-label"">F</div><div class=""position-box "" data-position=""1""></div></div><div class=""position-wrapper""><div class=""key-label"">J</div><div class=""position-box "" data-position=""2""></div></div><div class=""position-wrapper""><div class=""key-label"">K</div><div class=""position-box "" data-position=""3""></div></div></div><div class=""finger-diagram-container"">
			<img src=""assets/finger-diagrams/finger-diagram-4pos.png"" alt=""Finger position guide"" class=""finger-diagram"" />
		</div>","d","0","d","true","","","","",""
"","","","","","practice","feedback","html-keyboard-response","10","156306","0.0-5.0-0.0-1.0","P_d232cdc08347950b409ee14fd2637d7c719f23ca35ed2ebaa5839673917fa8fb","6975d475053a04ec2a824d54","6975d6e5ed5452be53e382c1","4","[[0.060260165899335215,0.701326755417172,0.23841307868349276,0],[0.0000023008162070389276,0,0.027367528309657305,0.9726301708741357],[0.35387827489883494,0.2986732967287947,0.3474484283723703,0],[0.5858593039421993,0,0.3867710069645787,0.02736968909322194]]","[1.0963305126500609,0.18105958573962463,1.5809472755632945,1.1240499164293296]","[3,2,1,3,0,2,1,3,0,2,1,3,2,2,0,1,3,2,0,1,3,0,1,3,0,1,3,0,1,3,2,1,2,1,3,2,1,3,2,1,3,2,2,1,3,2,0,1,3,2,0,2,0,2,0,2,0,0,1,3,2,0,2,2,1,3,2,2,1,3,0,1,3,2,1,3,0,1,2,2,1,2,0,1,3,2,2,2,2,2,2,0,1,3,2,0,1,3,2,0,1,3,0,1,3,0,1,3,0,1,3,2,2,1,3,0,1,3,0,1,3,0,1,3,0,2,0,1,3,0,1,3,2,0,0,2,1,3,0,1,3,0,1,3,0,1,3,2,0,1,3,2,1,3,3,0,1,3,0,2,1,3,2,2,2,2,0,1,3,0,1,3,2,1,3,0,1,3,2,0,2,2,2,0,2,2,0,1,2,0,1,3,0,1,3,0,1,3,0,2,2,0,1,3,0,2,1,3,2,0,0,1,3,2,1,3,0,1,3,2,1,3,0,1,3,2,0,1,3,0,1,3,0,0,1,3,2,1,3,2,1,3,0,0,1,3,0,0,1,3,2,0,1,3,0,1,3,2,1,3,2,1,3,0,1,3,2,0,2,0,2,2,2,2,0,0,1,3,0,1]","40","280","8","null","","<div class=""feedback-message""><div class=""feedback-correct"">✓</div></div><div class=""stimulus-container""><div class=""position-wrapper""><div class=""key-label"">D</div><div class=""position-box active"" data-position=""0""></div></div><div class=""position-wrapper""><div class=""key-label"">F</div><div class=""position-box "" data-position=""1""></div></div><div class=""position-wrapper""><div class=""key-label"">J</div><div class=""position-box "" data-position=""2""></div></div><div class=""position-wrapper""><div class=""key-label"">K</div><div class=""position-box "" data-position=""3""></div></div></div><div class=""finger-diagram-container"">
			<img src=""assets/finger-diagrams/finger-diagram-4pos.png"" alt=""Finger position guide"" class=""finger-diagram"" />
		</div>","null","","","","","","","",""
"","","","","","practice","rsi","html-keyboard-response","11","156441","0.0-5.0-1.0","P_d232cdc08347950b409ee14fd2637d7c719f23ca35ed2ebaa5839673917fa8fb","6975d475053a04ec2a824d54","6975d6e5ed5452be53e382c1","4","[[0.060260165899335215,0.701326755417172,0.23841307868349276,0],[0.0000023008162070389276,0,0.027367528309657305,0.9726301708741357],[0.35387827489883494,0.2986732967287947,0.3474484283723703,0],[0.5858593039421993,0,0.3867710069645787,0.02736968909322194]]","[1.0963305126500609,0.18105958573962463,1.5809472755632945,1.1240499164293296]","[3,2,1,3,0,2,1,3,0,2,1,3,2,2,0,1,3,2,0,1,3,0,1,3,0,1,3,0,1,3,2,1,2,1,3,2,1,3,2,1,3,2,2,1,3,2,0,1,3,2,0,2,0,2,0,2,0,0,1,3,2,0,2,2,1,3,2,2,1,3,0,1,3,2,1,3,0,1,2,2,1,2,0,1,3,2,2,2,2,2,2,0,1,3,2,0,1,3,2,0,1,3,0,1,3,0,1,3,0,1,3,2,2,1,3,0,1,3,0,1,3,0,1,3,0,2,0,1,3,0,1,3,2,0,0,2,1,3,0,1,3,0,1,3,0,1,3,2,0,1,3,2,1,3,3,0,1,3,0,2,1,3,2,2,2,2,0,1,3,0,1,3,2,1,3,0,1,3,2,0,2,2,2,0,2,2,0,1,2,0,1,3,0,1,3,0,1,3,0,2,2,0,1,3,0,2,1,3,2,0,0,1,3,2,1,3,0,1,3,2,1,3,0,1,3,2,0,1,3,0,1,3,0,0,1,3,2,1,3,2,1,3,0,0,1,3,0,0,1,3,2,0,1,3,0,1,3,2,1,3,2,1,3,0,1,3,2,0,2,0,2,2,2,2,0,0,1,3,0,1]","40","280","8","null","","<div class=""feedback-message""></div><div class=""stimulus-container""><div class=""position-wrapper""><div class=""key-label"">D</div><div class=""position-box "" data-position=""0""></div></div><div class=""position-wrapper""><div class=""key-label"">F</div><div class=""position-box "" data-position=""1""></div></div><div class=""position-wrapper""><div class=""key-label"">J</div><div class=""position-box "" data-position=""2""></div></div><div class=""position-wrapper""><div class=""key-label"">K</div><div class=""position-box "" data-position=""3""></div></div></div><div class=""finger-diagram-container"">
			<img src=""assets/finger-diagrams/finger-diagram-4pos.png"" alt=""Finger position guide"" class=""finger-diagram"" />
		</div>","null","","","","","","","",""
"","","","","","practice","stimulus","html-keyboard-response","12","156951","0.0-6.0-0.0-0.0","P_d232cdc08347950b409ee14fd2637d7c719f23ca35ed2ebaa5839673917fa8fb","6975d475053a04ec2a824d54","6975d6e5ed5452be53e382c1","4","[[0.060260165899335215,0.701326755417172,0.23841307868349276,0],[0.0000023008162070389276,0,0.027367528309657305,0.9726301708741357],[0.35387827489883494,0.2986732967287947,0.3474484283723703,0],[0.5858593039421993,0,0.3867710069645787,0.02736968909322194]]","[1.0963305126500609,0.18105958573962463,1.5809472755632945,1.1240499164293296]","[3,2,1,3,0,2,1,3,0,2,1,3,2,2,0,1,3,2,0,1,3,0,1,3,0,1,3,0,1,3,2,1,2,1,3,2,1,3,2,1,3,2,2,1,3,2,0,1,3,2,0,2,0,2,0,2,0,0,1,3,2,0,2,2,1,3,2,2,1,3,0,1,3,2,1,3,0,1,2,2,1,2,0,1,3,2,2,2,2,2,2,0,1,3,2,0,1,3,2,0,1,3,0,1,3,0,1,3,0,1,3,2,2,1,3,0,1,3,0,1,3,0,1,3,0,2,0,1,3,0,1,3,2,0,0,2,1,3,0,1,3,0,1,3,0,1,3,2,0,1,3,2,1,3,3,0,1,3,0,2,1,3,2,2,2,2,0,1,3,0,1,3,2,1,3,0,1,3,2,0,2,2,2,0,2,2,0,1,2,0,1,3,0,1,3,0,1,3,0,2,2,0,1,3,0,2,1,3,2,0,0,1,3,2,1,3,0,1,3,2,1,3,0,1,3,2,0,1,3,0,1,3,0,0,1,3,2,1,3,2,1,3,0,0,1,3,0,0,1,3,2,0,1,3,0,1,3,2,1,3,2,1,3,0,1,3,2,0,2,0,2,2,2,2,0,0,1,3,0,1]","40","280","8","509","","<div class=""feedback-message""></div><div class=""stimulus-container""><div class=""position-wrapper""><div class=""key-label"">D</div><div class=""position-box "" data-position=""0""></div></div><div class=""position-wrapper""><div class=""key-label"">F</div><div class=""position-box "" data-position=""1""></div></div><div class=""position-wrapper""><div class=""key-label"">J</div><div class=""position-box "" data-position=""2""></div></div><div class=""position-wrapper""><div class=""key-label"">K</div><div class=""position-box active"" data-position=""3""></div></div></div><div class=""finger-diagram-container"">
			<img src=""assets/finger-diagrams/finger-diagram-4pos.png"" alt=""Finger position guide"" class=""finger-diagram"" />
		</div>","k","3","k","true","","","","",""
"","","","","","practice","feedback","html-keyboard-response","13","157165","0.0-6.0-0.0-1.0","P_d232cdc08347950b409ee14fd2637d7c719f23ca35ed2ebaa5839673917fa8fb","6975d475053a04ec2a824d54","6975d6e5ed5452be53e382c1","4","[[0.060260165899335215,0.701326755417172,0.23841307868349276,0],[0.0000023008162070389276,0,0.027367528309657305,0.9726301708741357],[0.35387827489883494,0.2986732967287947,0.3474484283723703,0],[0.5858593039421993,0,0.3867710069645787,0.02736968909322194]]","[1.0963305126500609,0.18105958573962463,1.5809472755632945,1.1240499164293296]","[3,2,1,3,0,2,1,3,0,2,1,3,2,2,0,1,3,2,0,1,3,0,1,3,0,1,3,0,1,3,2,1,2,1,3,2,1,3,2,1,3,2,2,1,3,2,0,1,3,2,0,2,0,2,0,2,0,0,1,3,2,0,2,2,1,3,2,2,1,3,0,1,3,2,1,3,0,1,2,2,1,2,0,1,3,2,2,2,2,2,2,0,1,3,2,0,1,3,2,0,1,3,0,1,3,0,1,3,0,1,3,2,2,1,3,0,1,3,0,1,3,0,1,3,0,2,0,1,3,0,1,3,2,0,0,2,1,3,0,1,3,0,1,3,0,1,3,2,0,1,3,2,1,3,3,0,1,3,0,2,1,3,2,2,2,2,0,1,3,0,1,3,2,1,3,0,1,3,2,0,2,2,2,0,2,2,0,1,2,0,1,3,0,1,3,0,1,3,0,2,2,0,1,3,0,2,1,3,2,0,0,1,3,2,1,3,0,1,3,2,1,3,0,1,3,2,0,1,3,0,1,3,0,0,1,3,2,1,3,2,1,3,0,0,1,3,0,0,1,3,2,0,1,3,0,1,3,2,1,3,2,1,3,0,1,3,2,0,2,0,2,2,2,2,0,0,1,3,0,1]","40","280","8","null","","<div class=""feedback-message""><div class=""feedback-correct"">✓</div></div><div class=""stimulus-container""><div class=""position-wrapper""><div class=""key-label"">D</div><div class=""position-box "" data-position=""0""></div></div><div class=""position-wrapper""><div class=""key-label"">F</div><div class=""position-box "" data-position=""1""></div></div><div class=""position-wrapper""><div class=""key-label"">J</div><div class=""position-box "" data-position=""2""></div></div><div class=""position-wrapper""><div class=""key-label"">K</div><div class=""position-box active"" data-position=""3""></div></div></div><div class=""finger-diagram-container"">
			<img src=""assets/finger-diagrams/finger-diagram-4pos.png"" alt=""Finger position guide"" class=""finger-diagram"" />
		</div>","null","","","","","","","",""
"","","","","","practice","rsi","html-keyboard-response","14","157297","0.0-6.0-1.0","P_d232cdc08347950b409ee14fd2637d7c719f23ca35ed2ebaa5839673917fa8fb","6975d475053a04ec2a824d54","6975d6e5ed5452be53e382c1","4","[[0.060260165899335215,0.701326755417172,0.23841307868349276,0],[0.0000023008162070389276,0,0.027367528309657305,0.9726301708741357],[0.35387827489883494,0.2986732967287947,0.3474484283723703,0],[0.5858593039421993,0,0.3867710069645787,0.02736968909322194]]","[1.0963305126500609,0.18105958573962463,1.5809472755632945,1.1240499164293296]","[3,2,1,3,0,2,1,3,0,2,1,3,2,2,0,1,3,2,0,1,3,0,1,3,0,1,3,0,1,3,2,1,2,1,3,2,1,3,2,1,3,2,2,1,3,2,0,1,3,2,0,2,0,2,0,2,0,0,1,3,2,0,2,2,1,3,2,2,1,3,0,1,3,2,1,3,0,1,2,2,1,2,0,1,3,2,2,2,2,2,2,0,1,3,2,0,1,3,2,0,1,3,0,1,3,0,1,3,0,1,3,2,2,1,3,0,1,3,0,1,3,0,1,3,0,2,0,1,3,0,1,3,2,0,0,2,1,3,0,1,3,0,1,3,0,1,3,2,0,1,3,2,1,3,3,0,1,3,0,2,1,3,2,2,2,2,0,1,3,0,1,3,2,1,3,0,1,3,2,0,2,2,2,0,2,2,0,1,2,0,1,3,0,1,3,0,1,3,0,2,2,0,1,3,0,2,1,3,2,0,0,1,3,2,1,3,0,1,3,2,1,3,0,1,3,2,0,1,3,0,1,3,0,0,1,3,2,1,3,2,1,3,0,0,1,3,0,0,1,3,2,0,1,3,0,1,3,2,1,3,2,1,3,0,1,3,2,0,2,0,2,2,2,2,0,0,1,3,0,1]","40","280","8","null","","<div class=""feedback-message""></div><div class=""stimulus-container""><div class=""position-wrapper""><div class=""key-label"">D</div><div class=""position-box "" data-position=""0""></div></div><div class=""position-wrapper""><div class=""key-label"">F</div><div class=""position-box "" data-position=""1""></div></div><div class=""position-wrapper""><div class=""key-label"">J</div><div class=""position-box "" data-position=""2""></div></div><div class=""position-wrapper""><div class=""key-label"">K</div><div class=""position-box "" data-position=""3""></div></div></div><div class=""finger-diagram-container"">
			<img src=""assets/finger-diagrams/finger-diagram-4pos.png"" alt=""Finger position guide"" class=""finger-diagram"" />
		</div>","null","","","","","","","",""
"","","","","","practice","stimulus","html-keyboard-response","15","158039","0.0-7.0-0.0-0.0","P_d232cdc08347950b409ee14fd2637d7c719f23ca35ed2ebaa5839673917fa8fb","6975d475053a04ec2a824d54","6975d6e5ed5452be53e382c1","4","[[0.060260165899335215,0.701326755417172,0.23841307868349276,0],[0.0000023008162070389276,0,0.027367528309657305,0.9726301708741357],[0.35387827489883494,0.2986732967287947,0.3474484283723703,0],[0.5858593039421993,0,0.3867710069645787,0.02736968909322194]]","[1.0963305126500609,0.18105958573962463,1.5809472755632945,1.1240499164293296]","[3,2,1,3,0,2,1,3,0,2,1,3,2,2,0,1,3,2,0,1,3,0,1,3,0,1,3,0,1,3,2,1,2,1,3,2,1,3,2,1,3,2,2,1,3,2,0,1,3,2,0,2,0,2,0,2,0,0,1,3,2,0,2,2,1,3,2,2,1,3,0,1,3,2,1,3,0,1,2,2,1,2,0,1,3,2,2,2,2,2,2,0,1,3,2,0,1,3,2,0,1,3,0,1,3,0,1,3,0,1,3,2,2,1,3,0,1,3,0,1,3,0,1,3,0,2,0,1,3,0,1,3,2,0,0,2,1,3,0,1,3,0,1,3,0,1,3,2,0,1,3,2,1,3,3,0,1,3,0,2,1,3,2,2,2,2,0,1,3,0,1,3,2,1,3,0,1,3,2,0,2,2,2,0,2,2,0,1,2,0,1,3,0,1,3,0,1,3,0,2,2,0,1,3,0,2,1,3,2,0,0,1,3,2,1,3,0,1,3,2,1,3,0,1,3,2,0,1,3,0,1,3,0,0,1,3,2,1,3,2,1,3,0,0,1,3,0,0,1,3,2,0,1,3,0,1,3,2,1,3,2,1,3,0,1,3,2,0,2,0,2,2,2,2,0,0,1,3,0,1]","40","280","8","740","","<div class=""feedback-message""></div><div class=""stimulus-container""><div class=""position-wrapper""><div class=""key-label"">D</div><div class=""position-box "" data-position=""0""></div></div><div class=""position-wrapper""><div class=""key-label"">F</div><div class=""position-box "" data-position=""1""></div></div><div class=""position-wrapper""><div class=""key-label"">J</div><div class=""position-box "" data-position=""2""></div></div><div class=""position-wrapper""><div class=""key-label"">K</div><div class=""position-box active"" data-position=""3""></div></div></div><div class=""finger-diagram-container"">
			<img src=""assets/finger-diagrams/finger-diagram-4pos.png"" alt=""Finger position guide"" class=""finger-diagram"" />
		</div>","k","3","k","true","","","","",""
"","","","","","practice","feedback","html-keyboard-response","16","158244","0.0-7.0-0.0-1.0","P_d232cdc08347950b409ee14fd2637d7c719f23ca35ed2ebaa5839673917fa8fb","6975d475053a04ec2a824d54","6975d6e5ed5452be53e382c1","4","[[0.060260165899335215,0.701326755417172,0.23841307868349276,0],[0.0000023008162070389276,0,0.027367528309657305,0.9726301708741357],[0.35387827489883494,0.2986732967287947,0.3474484283723703,0],[0.5858593039421993,0,0.3867710069645787,0.02736968909322194]]","[1.0963305126500609,0.18105958573962463,1.5809472755632945,1.1240499164293296]","[3,2,1,3,0,2,1,3,0,2,1,3,2,2,0,1,3,2,0,1,3,0,1,3,0,1,3,0,1,3,2,1,2,1,3,2,1,3,2,1,3,2,2,1,3,2,0,1,3,2,0,2,0,2,0,2,0,0,1,3,2,0,2,2,1,3,2,2,1,3,0,1,3,2,1,3,0,1,2,2,1,2,0,1,3,2,2,2,2,2,2,0,1,3,2,0,1,3,2,0,1,3,0,1,3,0,1,3,0,1,3,2,2,1,3,0,1,3,0,1,3,0,1,3,0,2,0,1,3,0,1,3,2,0,0,2,1,3,0,1,3,0,1,3,0,1,3,2,0,1,3,2,1,3,3,0,1,3,0,2,1,3,2,2,2,2,0,1,3,0,1,3,2,1,3,0,1,3,2,0,2,2,2,0,2,2,0,1,2,0,1,3,0,1,3,0,1,3,0,2,2,0,1,3,0,2,1,3,2,0,0,1,3,2,1,3,0,1,3,2,1,3,0,1,3,2,0,1,3,0,1,3,0,0,1,3,2,1,3,2,1,3,0,0,1,3,0,0,1,3,2,0,1,3,0,1,3,2,1,3,2,1,3,0,1,3,2,0,2,0,2,2,2,2,0,0,1,3,0,1]","40","280","8","null","","<div class=""feedback-message""><div class=""feedback-correct"">✓</div></div><div class=""stimulus-container""><div class=""position-wrapper""><div class=""key-label"">D</div><div class=""position-box "" data-position=""0""></div></div><div class=""position-wrapper""><div class=""key-label"">F</div><div class=""position-box "" data-position=""1""></div></div><div class=""position-wrapper""><div class=""key-label"">J</div><div class=""position-box "" data-position=""2""></div></div><div class=""position-wrapper""><div class=""key-label"">K</div><div class=""position-box active"" data-position=""3""></div></div></div><div class=""finger-diagram-container"">
			<img src=""assets/finger-diagrams/finger-diagram-4pos.png"" alt=""Finger position guide"" class=""finger-diagram"" />
		</div>","null","","","","","","","",""
"","","","","","practice","rsi","html-keyboard-response","17","158381","0.0-7.0-1.0","P_d232cdc08347950b409ee14fd2637d7c719f23ca35ed2ebaa5839673917fa8fb","6975d475053a04ec2a824d54","6975d6e5ed5452be53e382c1","4","[[0.060260165899335215,0.701326755417172,0.23841307868349276,0],[0.0000023008162070389276,0,0.027367528309657305,0.9726301708741357],[0.35387827489883494,0.2986732967287947,0.3474484283723703,0],[0.5858593039421993,0,0.3867710069645787,0.02736968909322194]]","[1.0963305126500609,0.18105958573962463,1.5809472755632945,1.1240499164293296]","[3,2,1,3,0,2,1,3,0,2,1,3,2,2,0,1,3,2,0,1,3,0,1,3,0,1,3,0,1,3,2,1,2,1,3,2,1,3,2,1,3,2,2,1,3,2,0,1,3,2,0,2,0,2,0,2,0,0,1,3,2,0,2,2,1,3,2,2,1,3,0,1,3,2,1,3,0,1,2,2,1,2,0,1,3,2,2,2,2,2,2,0,1,3,2,0,1,3,2,0,1,3,0,1,3,0,1,3,0,1,3,2,2,1,3,0,1,3,0,1,3,0,1,3,0,2,0,1,3,0,1,3,2,0,0,2,1,3,0,1,3,0,1,3,0,1,3,2,0,1,3,2,1,3,3,0,1,3,0,2,1,3,2,2,2,2,0,1,3,0,1,3,2,1,3,0,1,3,2,0,2,2,2,0,2,2,0,1,2,0,1,3,0,1,3,0,1,3,0,2,2,0,1,3,0,2,1,3,2,0,0,1,3,2,1,3,0,1,3,2,1,3,0,1,3,2,0,1,3,0,1,3,0,0,1,3,2,1,3,2,1,3,0,0,1,3,0,0,1,3,2,0,1,3,0,1,3,2,1,3,2,1,3,0,1,3,2,0,2,0,2,2,2,2,0,0,1,3,0,1]","40","280","8","null","","<div class=""feedback-message""></div><div class=""stimulus-container""><div class=""position-wrapper""><div class=""key-label"">D</div><div class=""position-box "" data-position=""0""></div></div><div class=""position-wrapper""><div class=""key-label"">F</div><div class=""position-box "" data-position=""1""></div></div><div class=""position-wrapper""><div class=""key-label"">J</div><div class=""position-box "" data-position=""2""></div></div><div class=""position-wrapper""><div class=""key-label"">K</div><div class=""position-box "" data-position=""3""></div></div></div><div class=""finger-diagram-container"">
			<img src=""assets/finger-diagrams/finger-diagram-4pos.png"" alt=""Finger position guide"" class=""finger-diagram"" />
		</div>","null","","","","","","","",""
"","","","","","practice","stimulus","html-keyboard-response","18","159121","0.0-8.0-0.0-0.0","P_d232cdc08347950b409ee14fd2637d7c719f23ca35ed2ebaa5839673917fa8fb","6975d475053a04ec2a824d54","6975d6e5ed5452be53e382c1","4","[[0.060260165899335215,0.701326755417172,0.23841307868349276,0],[0.0000023008162070389276,0,0.027367528309657305,0.9726301708741357],[0.35387827489883494,0.2986732967287947,0.3474484283723703,0],[0.5858593039421993,0,0.3867710069645787,0.02736968909322194]]","[1.0963305126500609,0.18105958573962463,1.5809472755632945,1.1240499164293296]","[3,2,1,3,0,2,1,3,0,2,1,3,2,2,0,1,3,2,0,1,3,0,1,3,0,1,3,0,1,3,2,1,2,1,3,2,1,3,2,1,3,2,2,1,3,2,0,1,3,2,0,2,0,2,0,2,0,0,1,3,2,0,2,2,1,3,2,2,1,3,0,1,3,2,1,3,0,1,2,2,1,2,0,1,3,2,2,2,2,2,2,0,1,3,2,0,1,3,2,0,1,3,0,1,3,0,1,3,0,1,3,2,2,1,3,0,1,3,0,1,3,0,1,3,0,2,0,1,3,0,1,3,2,0,0,2,1,3,0,1,3,0,1,3,0,1,3,2,0,1,3,2,1,3,3,0,1,3,0,2,1,3,2,2,2,2,0,1,3,0,1,3,2,1,3,0,1,3,2,0,2,2,2,0,2,2,0,1,2,0,1,3,0,1,3,0,1,3,0,2,2,0,1,3,0,2,1,3,2,0,0,1,3,2,1,3,0,1,3,2,1,3,0,1,3,2,0,1,3,0,1,3,0,0,1,3,2,1,3,2,1,3,0,0,1,3,0,0,1,3,2,0,1,3,0,1,3,2,1,3,2,1,3,0,1,3,2,0,2,0,2,2,2,2,0,0,1,3,0,1]","40","280","8","739","","<div class=""feedback-message""></div><div class=""stimulus-container""><div class=""position-wrapper""><div class=""key-label"">D</div><div class=""position-box "" data-position=""0""></div></div><div class=""position-wrapper""><div class=""key-label"">F</div><div class=""position-box active"" data-position=""1""></div></div><div class=""position-wrapper""><div class=""key-label"">J</div><div class=""position-box "" data-position=""2""></div></div><div class=""position-wrapper""><div class=""key-label"">K</div><div class=""position-box "" data-position=""3""></div></div></div><div class=""finger-diagram-container"">
			<img src=""assets/finger-diagrams/finger-diagram-4pos.png"" alt=""Finger position guide"" class=""finger-diagram"" />
		</div>","f","1","f","true","","","","",""
"","","","","","practice","feedback","html-keyboard-response","19","159325","0.0-8.0-0.0-1.0","P_d232cdc08347950b409ee14fd2637d7c719f23ca35ed2ebaa5839673917fa8fb","6975d475053a04ec2a824d54","6975d6e5ed5452be53e382c1","4","[[0.060260165899335215,0.701326755417172,0.23841307868349276,0],[0.0000023008162070389276,0,0.027367528309657305,0.9726301708741357],[0.35387827489883494,0.2986732967287947,0.3474484283723703,0],[0.5858593039421993,0,0.3867710069645787,0.02736968909322194]]","[1.0963305126500609,0.18105958573962463,1.5809472755632945,1.1240499164293296]","[3,2,1,3,0,2,1,3,0,2,1,3,2,2,0,1,3,2,0,1,3,0,1,3,0,1,3,0,1,3,2,1,2,1,3,2,1,3,2,1,3,2,2,1,3,2,0,1,3,2,0,2,0,2,0,2,0,0,1,3,2,0,2,2,1,3,2,2,1,3,0,1,3,2,1,3,0,1,2,2,1,2,0,1,3,2,2,2,2,2,2,0,1,3,2,0,1,3,2,0,1,3,0,1,3,0,1,3,0,1,3,2,2,1,3,0,1,3,0,1,3,0,1,3,0,2,0,1,3,0,1,3,2,0,0,2,1,3,0,1,3,0,1,3,0,1,3,2,0,1,3,2,1,3,3,0,1,3,0,2,1,3,2,2,2,2,0,1,3,0,1,3,2,1,3,0,1,3,2,0,2,2,2,0,2,2,0,1,2,0,1,3,0,1,3,0,1,3,0,2,2,0,1,3,0,2,1,3,2,0,0,1,3,2,1,3,0,1,3,2,1,3,0,1,3,2,0,1,3,0,1,3,0,0,1,3,2,1,3,2,1,3,0,0,1,3,0,0,1,3,2,0,1,3,0,1,3,2,1,3,2,1,3,0,1,3,2,0,2,0,2,2,2,2,0,0,1,3,0,1]","40","280","8","null","","<div class=""feedback-message""><div class=""feedback-correct"">✓</div></div><div class=""stimulus-container""><div class=""position-wrapper""><div class=""key-label"">D</div><div class=""position-box "" data-position=""0""></div></div><div class=""position-wrapper""><div class=""key-label"">F</div><div class=""position-box active"" data-position=""1""></div></div><div class=""position-wrapper""><div class=""key-label"">J</div><div class=""position-box "" data-position=""2""></div></div><div class=""position-wrapper""><div class=""key-label"">K</div><div class=""position-box "" data-position=""3""></div></div></div><div class=""finger-diagram-container"">
			<img src=""assets/finger-diagrams/finger-diagram-4pos.png"" alt=""Finger position guide"" class=""finger-diagram"" />
		</div>","null","","","","","","","",""
"","","","","","practice","rsi","html-keyboard-response","20","159448","0.0-8.0-1.0","P_d232cdc08347950b409ee14fd2637d7c719f23ca35ed2ebaa5839673917fa8fb","6975d475053a04ec2a824d54","6975d6e5ed5452be53e382c1","4","[[0.060260165899335215,0.701326755417172,0.23841307868349276,0],[0.0000023008162070389276,0,0.027367528309657305,0.9726301708741357],[0.35387827489883494,0.2986732967287947,0.3474484283723703,0],[0.5858593039421993,0,0.3867710069645787,0.02736968909322194]]","[1.0963305126500609,0.18105958573962463,1.5809472755632945,1.1240499164293296]","[3,2,1,3,0,2,1,3,0,2,1,3,2,2,0,1,3,2,0,1,3,0,1,3,0,1,3,0,1,3,2,1,2,1,3,2,1,3,2,1,3,2,2,1,3,2,0,1,3,2,0,2,0,2,0,2,0,0,1,3,2,0,2,2,1,3,2,2,1,3,0,1,3,2,1,3,0,1,2,2,1,2,0,1,3,2,2,2,2,2,2,0,1,3,2,0,1,3,2,0,1,3,0,1,3,0,1,3,0,1,3,2,2,1,3,0,1,3,0,1,3,0,1,3,0,2,0,1,3,0,1,3,2,0,0,2,1,3,0,1,3,0,1,3,0,1,3,2,0,1,3,2,1,3,3,0,1,3,0,2,1,3,2,2,2,2,0,1,3,0,1,3,2,1,3,0,1,3,2,0,2,2,2,0,2,2,0,1,2,0,1,3,0,1,3,0,1,3,0,2,2,0,1,3,0,2,1,3,2,0,0,1,3,2,1,3,0,1,3,2,1,3,0,1,3,2,0,1,3,0,1,3,0,0,1,3,2,1,3,2,1,3,0,0,1,3,0,0,1,3,2,0,1,3,0,1,3,2,1,3,2,1,3,0,1,3,2,0,2,0,2,2,2,2,0,0,1,3,0,1]","40","280","8","null","","<div class=""feedback-message""></div><div class=""stimulus-container""><div class=""position-wrapper""><div class=""key-label"">D</div><div class=""position-box "" data-position=""0""></div></div><div class=""position-wrapper""><div class=""key-label"">F</div><div class=""position-box "" data-position=""1""></div></div><div class=""position-wrapper""><div class=""key-label"">J</div><div class=""position-box "" data-position=""2""></div></div><div class=""position-wrapper""><div class=""key-label"">K</div><div class=""position-box "" data-position=""3""></div></div></div><div class=""finger-diagram-container"">
			<img src=""assets/finger-diagrams/finger-diagram-4pos.png"" alt=""Finger position guide"" class=""finger-diagram"" />
		</div>","null","","","","","","","",""
"","","","","","practice","stimulus","html-keyboard-response","21","160017","0.0-9.0-0.0-0.0","P_d232cdc08347950b409ee14fd2637d7c719f23ca35ed2ebaa5839673917fa8fb","6975d475053a04ec2a824d54","6975d6e5ed5452be53e382c1","4","[[0.060260165899335215,0.701326755417172,0.23841307868349276,0],[0.0000023008162070389276,0,0.027367528309657305,0.9726301708741357],[0.35387827489883494,0.2986732967287947,0.3474484283723703,0],[0.5858593039421993,0,0.3867710069645787,0.02736968909322194]]","[1.0963305126500609,0.18105958573962463,1.5809472755632945,1.1240499164293296]","[3,2,1,3,0,2,1,3,0,2,1,3,2,2,0,1,3,2,0,1,3,0,1,3,0,1,3,0,1,3,2,1,2,1,3,2,1,3,2,1,3,2,2,1,3,2,0,1,3,2,0,2,0,2,0,2,0,0,1,3,2,0,2,2,1,3,2,2,1,3,0,1,3,2,1,3,0,1,2,2,1,2,0,1,3,2,2,2,2,2,2,0,1,3,2,0,1,3,2,0,1,3,0,1,3,0,1,3,0,1,3,2,2,1,3,0,1,3,0,1,3,0,1,3,0,2,0,1,3,0,1,3,2,0,0,2,1,3,0,1,3,0,1,3,0,1,3,2,0,1,3,2,1,3,3,0,1,3,0,2,1,3,2,2,2,2,0,1,3,0,1,3,2,1,3,0,1,3,2,0,2,2,2,0,2,2,0,1,2,0,1,3,0,1,3,0,1,3,0,2,2,0,1,3,0,2,1,3,2,0,0,1,3,2,1,3,0,1,3,2,1,3,0,1,3,2,0,1,3,0,1,3,0,0,1,3,2,1,3,2,1,3,0,0,1,3,0,0,1,3,2,0,1,3,0,1,3,2,1,3,2,1,3,0,1,3,2,0,2,0,2,2,2,2,0,0,1,3,0,1]","40","280","8","567","","<div class=""feedback-message""></div><div class=""stimulus-container""><div class=""position-wrapper""><div class=""key-label"">D</div><div class=""position-box "" data-position=""0""></div></div><div class=""position-wrapper""><div class=""key-label"">F</div><div class=""position-box "" data-position=""1""></div></div><div class=""position-wrapper""><div class=""key-label"">J</div><div class=""position-box active"" data-position=""2""></div></div><div class=""position-wrapper""><div class=""key-label"">K</div><div class=""position-box "" data-position=""3""></div></div></div><div class=""finger-diagram-container"">
			<img src=""assets/finger-diagrams/finger-diagram-4pos.png"" alt=""Finger position guide"" class=""finger-diagram"" />
		</div>","j","2","j","true","","","","",""
"","","","","","practice","feedback","html-keyboard-response","22","160227","0.0-9.0-0.0-1.0","P_d232cdc08347950b409ee14fd2637d7c719f23ca35ed2ebaa5839673917fa8fb","6975d475053a04ec2a824d54","6975d6e5ed5452be53e382c1","4","[[0.060260165899335215,0.701326755417172,0.23841307868349276,0],[0.0000023008162070389276,0,0.027367528309657305,0.9726301708741357],[0.35387827489883494,0.2986732967287947,0.3474484283723703,0],[0.5858593039421993,0,0.3867710069645787,0.02736968909322194]]","[1.0963305126500609,0.18105958573962463,1.5809472755632945,1.1240499164293296]","[3,2,1,3,0,2,1,3,0,2,1,3,2,2,0,1,3,2,0,1,3,0,1,3,0,1,3,0,1,3,2,1,2,1,3,2,1,3,2,1,3,2,2,1,3,2,0,1,3,2,0,2,0,2,0,2,0,0,1,3,2,0,2,2,1,3,2,2,1,3,0,1,3,2,1,3,0,1,2,2,1,2,0,1,3,2,2,2,2,2,2,0,1,3,2,0,1,3,2,0,1,3,0,1,3,0,1,3,0,1,3,2,2,1,3,0,1,3,0,1,3,0,1,3,0,2,0,1,3,0,1,3,2,0,0,2,1,3,0,1,3,0,1,3,0,1,3,2,0,1,3,2,1,3,3,0,1,3,0,2,1,3,2,2,2,2,0,1,3,0,1,3,2,1,3,0,1,3,2,0,2,2,2,0,2,2,0,1,2,0,1,3,0,1,3,0,1,3,0,2,2,0,1,3,0,2,1,3,2,0,0,1,3,2,1,3,0,1,3,2,1,3,0,1,3,2,0,1,3,0,1,3,0,0,1,3,2,1,3,2,1,3,0,0,1,3,0,0,1,3,2,0,1,3,0,1,3,2,1,3,2,1,3,0,1,3,2,0,2,0,2,2,2,2,0,0,1,3,0,1]","40","280","8","null","","<div class=""feedback-message""><div class=""feedback-correct"">✓</div></div><div class=""stimulus-container""><div class=""position-wrapper""><div class=""key-label"">D</div><div class=""position-box "" data-position=""0""></div></div><div class=""position-wrapper""><div class=""key-label"">F</div><div class=""position-box "" data-position=""1""></div></div><div class=""position-wrapper""><div class=""key-label"">J</div><div class=""position-box active"" data-position=""2""></div></div><div class=""position-wrapper""><div class=""key-label"">K</div><div class=""position-box "" data-position=""3""></div></div></div><div class=""finger-diagram-container"">
			<img src=""assets/finger-diagrams/finger-diagram-4pos.png"" alt=""Finger position guide"" class=""finger-diagram"" />
		</div>","null","","","","","","","",""
"","","","","","practice","rsi","html-keyboard-response","23","160361","0.0-9.0-1.0","P_d232cdc08347950b409ee14fd2637d7c719f23ca35ed2ebaa5839673917fa8fb","6975d475053a04ec2a824d54","6975d6e5ed5452be53e382c1","4","[[0.060260165899335215,0.701326755417172,0.23841307868349276,0],[0.0000023008162070389276,0,0.027367528309657305,0.9726301708741357],[0.35387827489883494,0.2986732967287947,0.3474484283723703,0],[0.5858593039421993,0,0.3867710069645787,0.02736968909322194]]","[1.0963305126500609,0.18105958573962463,1.5809472755632945,1.1240499164293296]","[3,2,1,3,0,2,1,3,0,2,1,3,2,2,0,1,3,2,0,1,3,0,1,3,0,1,3,0,1,3,2,1,2,1,3,2,1,3,2,1,3,2,2,1,3,2,0,1,3,2,0,2,0,2,0,2,0,0,1,3,2,0,2,2,1,3,2,2,1,3,0,1,3,2,1,3,0,1,2,2,1,2,0,1,3,2,2,2,2,2,2,0,1,3,2,0,1,3,2,0,1,3,0,1,3,0,1,3,0,1,3,2,2,1,3,0,1,3,0,1,3,0,1,3,0,2,0,1,3,0,1,3,2,0,0,2,1,3,0,1,3,0,1,3,0,1,3,2,0,1,3,2,1,3,3,0,1,3,0,2,1,3,2,2,2,2,0,1,3,0,1,3,2,1,3,0,1,3,2,0,2,2,2,0,2,2,0,1,2,0,1,3,0,1,3,0,1,3,0,2,2,0,1,3,0,2,1,3,2,0,0,1,3,2,1,3,0,1,3,2,1,3,0,1,3,2,0,1,3,0,1,3,0,0,1,3,2,1,3,2,1,3,0,0,1,3,0,0,1,3,2,0,1,3,0,1,3,2,1,3,2,1,3,0,1,3,2,0,2,0,2,2,2,2,0,0,1,3,0,1]","40","280","8","null","","<div class=""feedback-message""></div><div class=""stimulus-container""><div class=""position-wrapper""><div class=""key-label"">D</div><div class=""position-box "" data-position=""0""></div></div><div class=""position-wrapper""><div class=""key-label"">F</div><div class=""position-box "" data-position=""1""></div></div><div class=""position-wrapper""><div class=""key-label"">J</div><div class=""position-box "" data-position=""2""></div></div><div class=""position-wrapper""><div class=""key-label"">K</div><div class=""position-box "" data-position=""3""></div></div></div><div class=""finger-diagram-container"">
			<img src=""assets/finger-diagrams/finger-diagram-4pos.png"" alt=""Finger position guide"" class=""finger-diagram"" />
		</div>","null","","","","","","","",""
"","","","","","practice","stimulus","html-keyboard-response","24","160873","0.0-10.0-0.0-0.0","P_d232cdc08347950b409ee14fd2637d7c719f23ca35ed2ebaa5839673917fa8fb","6975d475053a04ec2a824d54","6975d6e5ed5452be53e382c1","4","[[0.060260165899335215,0.701326755417172,0.23841307868349276,0],[0.0000023008162070389276,0,0.027367528309657305,0.9726301708741357],[0.35387827489883494,0.2986732967287947,0.3474484283723703,0],[0.5858593039421993,0,0.3867710069645787,0.02736968909322194]]","[1.0963305126500609,0.18105958573962463,1.5809472755632945,1.1240499164293296]","[3,2,1,3,0,2,1,3,0,2,1,3,2,2,0,1,3,2,0,1,3,0,1,3,0,1,3,0,1,3,2,1,2,1,3,2,1,3,2,1,3,2,2,1,3,2,0,1,3,2,0,2,0,2,0,2,0,0,1,3,2,0,2,2,1,3,2,2,1,3,0,1,3,2,1,3,0,1,2,2,1,2,0,1,3,2,2,2,2,2,2,0,1,3,2,0,1,3,2,0,1,3,0,1,3,0,1,3,0,1,3,2,2,1,3,0,1,3,0,1,3,0,1,3,0,2,0,1,3,0,1,3,2,0,0,2,1,3,0,1,3,0,1,3,0,1,3,2,0,1,3,2,1,3,3,0,1,3,0,2,1,3,2,2,2,2,0,1,3,0,1,3,2,1,3,0,1,3,2,0,2,2,2,0,2,2,0,1,2,0,1,3,0,1,3,0,1,3,0,2,2,0,1,3,0,2,1,3,2,0,0,1,3,2,1,3,0,1,3,2,1,3,0,1,3,2,0,1,3,0,1,3,0,0,1,3,2,1,3,2,1,3,0,0,1,3,0,0,1,3,2,0,1,3,0,1,3,2,1,3,2,1,3,0,1,3,2,0,2,0,2,2,2,2,0,0,1,3,0,1]","40","280","8","511","","<div class=""feedback-message""></div><div class=""stimulus-container""><div class=""position-wrapper""><div class=""key-label"">D</div><div class=""position-box active"" data-position=""0""></div></div><div class=""position-wrapper""><div class=""key-label"">F</div><div class=""position-box "" data-position=""1""></div></div><div class=""position-wrapper""><div class=""key-label"">J</div><div class=""position-box "" data-position=""2""></div></div><div class=""position-wrapper""><div class=""key-label"">K</div><div class=""position-box "" data-position=""3""></div></div></div><div class=""finger-diagram-container"">
			<img src=""assets/finger-diagrams/finger-diagram-4pos.png"" alt=""Finger position guide"" class=""finger-diagram"" />
		</div>","d","0","d","true","","","","",""
"","","","","","practice","feedback","html-keyboard-response","25","161082","0.0-10.0-0.0-1.0","P_d232cdc08347950b409ee14fd2637d7c719f23ca35ed2ebaa5839673917fa8fb","6975d475053a04ec2a824d54","6975d6e5ed5452be53e382c1","4","[[0.060260165899335215,0.701326755417172,0.23841307868349276,0],[0.0000023008162070389276,0,0.027367528309657305,0.9726301708741357],[0.35387827489883494,0.2986732967287947,0.3474484283723703,0],[0.5858593039421993,0,0.3867710069645787,0.02736968909322194]]","[1.0963305126500609,0.18105958573962463,1.5809472755632945,1.1240499164293296]","[3,2,1,3,0,2,1,3,0,2,1,3,2,2,0,1,3,2,0,1,3,0,1,3,0,1,3,0,1,3,2,1,2,1,3,2,1,3,2,1,3,2,2,1,3,2,0,1,3,2,0,2,0,2,0,2,0,0,1,3,2,0,2,2,1,3,2,2,1,3,0,1,3,2,1,3,0,1,2,2,1,2,0,1,3,2,2,2,2,2,2,0,1,3,2,0,1,3,2,0,1,3,0,1,3,0,1,3,0,1,3,2,2,1,3,0,1,3,0,1,3,0,1,3,0,2,0,1,3,0,1,3,2,0,0,2,1,3,0,1,3,0,1,3,0,1,3,2,0,1,3,2,1,3,3,0,1,3,0,2,1,3,2,2,2,2,0,1,3,0,1,3,2,1,3,0,1,3,2,0,2,2,2,0,2,2,0,1,2,0,1,3,0,1,3,0,1,3,0,2,2,0,1,3,0,2,1,3,2,0,0,1,3,2,1,3,0,1,3,2,1,3,0,1,3,2,0,1,3,0,1,3,0,0,1,3,2,1,3,2,1,3,0,0,1,3,0,0,1,3,2,0,1,3,0,1,3,2,1,3,2,1,3,0,1,3,2,0,2,0,2,2,2,2,0,0,1,3,0,1]","40","280","8","null","","<div class=""feedback-message""><div class=""feedback-correct"">✓</div></div><div class=""stimulus-container""><div class=""position-wrapper""><div class=""key-label"">D</div><div class=""position-box active"" data-position=""0""></div></div><div class=""position-wrapper""><div class=""key-label"">F</div><div class=""position-box "" data-position=""1""></div></div><div class=""position-wrapper""><div class=""key-label"">J</div><div class=""position-box "" data-position=""2""></div></div><div class=""position-wrapper""><div class=""key-label"">K</div><div class=""position-box "" data-position=""3""></div></div></div><div class=""finger-diagram-container"">
			<img src=""assets/finger-diagrams/finger-diagram-4pos.png"" alt=""Finger position guide"" class=""finger-diagram"" />
		</div>","null","","","","","","","",""
"","","","","","practice","rsi","html-keyboard-response","26","161204","0.0-10.0-1.0","P_d232cdc08347950b409ee14fd2637d7c719f23ca35ed2ebaa5839673917fa8fb","6975d475053a04ec2a824d54","6975d6e5ed5452be53e382c1","4","[[0.060260165899335215,0.701326755417172,0.23841307868349276,0],[0.0000023008162070389276,0,0.027367528309657305,0.9726301708741357],[0.35387827489883494,0.2986732967287947,0.3474484283723703,0],[0.5858593039421993,0,0.3867710069645787,0.02736968909322194]]","[1.0963305126500609,0.18105958573962463,1.5809472755632945,1.1240499164293296]","[3,2,1,3,0,2,1,3,0,2,1,3,2,2,0,1,3,2,0,1,3,0,1,3,0,1,3,0,1,3,2,1,2,1,3,2,1,3,2,1,3,2,2,1,3,2,0,1,3,2,0,2,0,2,0,2,0,0,1,3,2,0,2,2,1,3,2,2,1,3,0,1,3,2,1,3,0,1,2,2,1,2,0,1,3,2,2,2,2,2,2,0,1,3,2,0,1,3,2,0,1,3,0,1,3,0,1,3,0,1,3,2,2,1,3,0,1,3,0,1,3,0,1,3,0,2,0,1,3,0,1,3,2,0,0,2,1,3,0,1,3,0,1,3,0,1,3,2,0,1,3,2,1,3,3,0,1,3,0,2,1,3,2,2,2,2,0,1,3,0,1,3,2,1,3,0,1,3,2,0,2,2,2,0,2,2,0,1,2,0,1,3,0,1,3,0,1,3,0,2,2,0,1,3,0,2,1,3,2,0,0,1,3,2,1,3,0,1,3,2,1,3,0,1,3,2,0,1,3,0,1,3,0,0,1,3,2,1,3,2,1,3,0,0,1,3,0,0,1,3,2,0,1,3,0,1,3,2,1,3,2,1,3,0,1,3,2,0,2,0,2,2,2,2,0,0,1,3,0,1]","40","280","8","null","","<div class=""feedback-message""></div><div class=""stimulus-container""><div class=""position-wrapper""><div class=""key-label"">D</div><div class=""position-box "" data-position=""0""></div></div><div class=""position-wrapper""><div class=""key-label"">F</div><div class=""position-box "" data-position=""1""></div></div><div class=""position-wrapper""><div class=""key-label"">J</div><div class=""position-box "" data-position=""2""></div></div><div class=""position-wrapper""><div class=""key-label"">K</div><div class=""position-box "" data-position=""3""></div></div></div><div class=""finger-diagram-container"">
			<img src=""assets/finger-diagrams/finger-diagram-4pos.png"" alt=""Finger position guide"" class=""finger-diagram"" />
		</div>","null","","","","","","","",""
"","","","","","practice","practice_end","html-button-response","27","168112","0.0-11.0","P_d232cdc08347950b409ee14fd2637d7c719f23ca35ed2ebaa5839673917fa8fb","6975d475053a04ec2a824d54","6975d6e5ed5452be53e382c1","4","[[0.060260165899335215,0.701326755417172,0.23841307868349276,0],[0.0000023008162070389276,0,0.027367528309657305,0.9726301708741357],[0.35387827489883494,0.2986732967287947,0.3474484283723703,0],[0.5858593039421993,0,0.3867710069645787,0.02736968909322194]]","[1.0963305126500609,0.18105958573962463,1.5809472755632945,1.1240499164293296]","[3,2,1,3,0,2,1,3,0,2,1,3,2,2,0,1,3,2,0,1,3,0,1,3,0,1,3,0,1,3,2,1,2,1,3,2,1,3,2,1,3,2,2,1,3,2,0,1,3,2,0,2,0,2,0,2,0,0,1,3,2,0,2,2,1,3,2,2,1,3,0,1,3,2,1,3,0,1,2,2,1,2,0,1,3,2,2,2,2,2,2,0,1,3,2,0,1,3,2,0,1,3,0,1,3,0,1,3,0,1,3,2,2,1,3,0,1,3,0,1,3,0,1,3,0,2,0,1,3,0,1,3,2,0,0,2,1,3,0,1,3,0,1,3,0,1,3,2,0,1,3,2,1,3,3,0,1,3,0,2,1,3,2,2,2,2,0,1,3,0,1,3,2,1,3,0,1,3,2,0,2,2,2,0,2,2,0,1,2,0,1,3,0,1,3,0,1,3,0,2,2,0,1,3,0,2,1,3,2,0,0,1,3,2,1,3,0,1,3,2,1,3,0,1,3,2,0,1,3,0,1,3,0,0,1,3,2,1,3,2,1,3,0,0,1,3,0,0,1,3,2,0,1,3,0,1,3,2,1,3,2,1,3,0,1,3,2,0,2,0,2,2,2,2,0,0,1,3,0,1]","40","280","8","6906","","
                <div class=""instruction-text"">
                    <h2>Practice Complete!</h2>
                    <p>You got 8 out of 8 trials correct.</p>
                    <p>Remember: Respond as quickly and accurately as possible.</p>
					<p>Now, you will complete 7 blocks of 40 trials.</p>
                    <p>Between blocks, you will get a break to rest.</p>
                    <p>The entire task takes about 7 minutes.</p>
                    <p><strong>The main task will now begin.</strong></p>
                </div>
            ","0","","","","","","","",""
"","","","","","main","stimulus","html-keyboard-response","28","169147","0.0-12.0-0.0-0.0","P_d232cdc08347950b409ee14fd2637d7c719f23ca35ed2ebaa5839673917fa8fb","6975d475053a04ec2a824d54","6975d6e5ed5452be53e382c1","4","[[0.060260165899335215,0.701326755417172,0.23841307868349276,0],[0.0000023008162070389276,0,0.027367528309657305,0.9726301708741357],[0.35387827489883494,0.2986732967287947,0.3474484283723703,0],[0.5858593039421993,0,0.3867710069645787,0.02736968909322194]]","[1.0963305126500609,0.18105958573962463,1.5809472755632945,1.1240499164293296]","[3,2,1,3,0,2,1,3,0,2,1,3,2,2,0,1,3,2,0,1,3,0,1,3,0,1,3,0,1,3,2,1,2,1,3,2,1,3,2,1,3,2,2,1,3,2,0,1,3,2,0,2,0,2,0,2,0,0,1,3,2,0,2,2,1,3,2,2,1,3,0,1,3,2,1,3,0,1,2,2,1,2,0,1,3,2,2,2,2,2,2,0,1,3,2,0,1,3,2,0,1,3,0,1,3,0,1,3,0,1,3,2,2,1,3,0,1,3,0,1,3,0,1,3,0,2,0,1,3,0,1,3,2,0,0,2,1,3,0,1,3,0,1,3,0,1,3,2,0,1,3,2,1,3,3,0,1,3,0,2,1,3,2,2,2,2,0,1,3,0,1,3,2,1,3,0,1,3,2,0,2,2,2,0,2,2,0,1,2,0,1,3,0,1,3,0,1,3,0,2,2,0,1,3,0,2,1,3,2,0,0,1,3,2,1,3,0,1,3,2,1,3,0,1,3,2,0,1,3,0,1,3,0,0,1,3,2,1,3,2,1,3,0,0,1,3,0,0,1,3,2,0,1,3,0,1,3,2,1,3,2,1,3,0,1,3,2,0,2,0,2,2,2,2,0,0,1,3,0,1]","40","280","8","1033","","<div class=""feedback-message""></div><div class=""stimulus-container""><div class=""position-wrapper""><div class=""position-box "" data-position=""0""></div></div><div class=""position-wrapper""><div class=""position-box "" data-position=""1""></div></div><div class=""position-wrapper""><div class=""position-box "" data-position=""2""></div></div><div class=""position-wrapper""><div class=""position-box active"" data-position=""3""></div></div></div><div class=""finger-diagram-container"">
			<img src=""assets/finger-diagrams/finger-diagram-4pos.png"" alt=""Finger position guide"" class=""finger-diagram"" />
		</div>","k","3","k","true","0","0","0","",""
"","","","","","main","feedback","html-keyboard-response","29","169351","0.0-12.0-0.0-1.0","P_d232cdc08347950b409ee14fd2637d7c719f23ca35ed2ebaa5839673917fa8fb","6975d475053a04ec2a824d54","6975d6e5ed5452be53e382c1","4","[[0.060260165899335215,0.701326755417172,0.23841307868349276,0],[0.0000023008162070389276,0,0.027367528309657305,0.9726301708741357],[0.35387827489883494,0.2986732967287947,0.3474484283723703,0],[0.5858593039421993,0,0.3867710069645787,0.02736968909322194]]","[1.0963305126500609,0.18105958573962463,1.5809472755632945,1.1240499164293296]","[3,2,1,3,0,2,1,3,0,2,1,3,2,2,0,1,3,2,0,1,3,0,1,3,0,1,3,0,1,3,2,1,2,1,3,2,1,3,2,1,3,2,2,1,3,2,0,1,3,2,0,2,0,2,0,2,0,0,1,3,2,0,2,2,1,3,2,2,1,3,0,1,3,2,1,3,0,1,2,2,1,2,0,1,3,2,2,2,2,2,2,0,1,3,2,0,1,3,2,0,1,3,0,1,3,0,1,3,0,1,3,2,2,1,3,0,1,3,0,1,3,0,1,3,0,2,0,1,3,0,1,3,2,0,0,2,1,3,0,1,3,0,1,3,0,1,3,2,0,1,3,2,1,3,3,0,1,3,0,2,1,3,2,2,2,2,0,1,3,0,1,3,2,1,3,0,1,3,2,0,2,2,2,0,2,2,0,1,2,0,1,3,0,1,3,0,1,3,0,2,2,0,1,3,0,2,1,3,2,0,0,1,3,2,1,3,0,1,3,2,1,3,0,1,3,2,0,1,3,0,1,3,0,0,1,3,2,1,3,2,1,3,0,0,1,3,0,0,1,3,2,0,1,3,0,1,3,2,1,3,2,1,3,0,1,3,2,0,2,0,2,2,2,2,0,0,1,3,0,1]","40","280","8","null","","<div class=""feedback-message""><div class=""feedback-correct"">✓</div></div><div class=""stimulus-container""><div class=""position-wrapper""><div class=""position-box "" data-position=""0""></div></div><div class=""position-wrapper""><div class=""position-box "" data-position=""1""></div></div><div class=""position-wrapper""><div class=""position-box "" data-position=""2""></div></div><div class=""position-wrapper""><div class=""position-box active"" data-position=""3""></div></div></div><div class=""finger-diagram-container"">
			<img src=""assets/finger-diagrams/finger-diagram-4pos.png"" alt=""Finger position guide"" class=""finger-diagram"" />
		</div>","null","","","","","","","",""
"","","","","","main","rsi","html-keyboard-response","30","169485","0.0-12.0-1.0","P_d232cdc08347950b409ee14fd2637d7c719f23ca35ed2ebaa5839673917fa8fb","6975d475053a04ec2a824d54","6975d6e5ed5452be53e382c1","4","[[0.060260165899335215,0.701326755417172,0.23841307868349276,0],[0.0000023008162070389276,0,0.027367528309657305,0.9726301708741357],[0.35387827489883494,0.2986732967287947,0.3474484283723703,0],[0.5858593039421993,0,0.3867710069645787,0.02736968909322194]]","[1.0963305126500609,0.18105958573962463,1.5809472755632945,1.1240499164293296]","[3,2,1,3,0,2,1,3,0,2,1,3,2,2,0,1,3,2,0,1,3,0,1,3,0,1,3,0,1,3,2,1,2,1,3,2,1,3,2,1,3,2,2,1,3,2,0,1,3,2,0,2,0,2,0,2,0,0,1,3,2,0,2,2,1,3,2,2,1,3,0,1,3,2,1,3,0,1,2,2,1,2,0,1,3,2,2,2,2,2,2,0,1,3,2,0,1,3,2,0,1,3,0,1,3,0,1,3,0,1,3,2,2,1,3,0,1,3,0,1,3,0,1,3,0,2,0,1,3,0,1,3,2,0,0,2,1,3,0,1,3,0,1,3,0,1,3,2,0,1,3,2,1,3,3,0,1,3,0,2,1,3,2,2,2,2,0,1,3,0,1,3,2,1,3,0,1,3,2,0,2,2,2,0,2,2,0,1,2,0,1,3,0,1,3,0,1,3,0,2,2,0,1,3,0,2,1,3,2,0,0,1,3,2,1,3,0,1,3,2,1,3,0,1,3,2,0,1,3,0,1,3,0,0,1,3,2,1,3,2,1,3,0,0,1,3,0,0,1,3,2,0,1,3,0,1,3,2,1,3,2,1,3,0,1,3,2,0,2,0,2,2,2,2,0,0,1,3,0,1]","40","280","8","null","","<div class=""feedback-message""></div><div class=""stimulus-container""><div class=""position-wrapper""><div class=""position-box "" data-position=""0""></div></div><div class=""position-wrapper""><div class=""position-box "" data-position=""1""></div></div><div class=""position-wrapper""><div class=""position-box "" data-position=""2""></div></div><div class=""position-wrapper""><div class=""position-box "" data-position=""3""></div></div></div><div class=""finger-diagram-container"">
			<img src=""assets/finger-diagrams/finger-diagram-4pos.png"" alt=""Finger position guide"" class=""finger-diagram"" />
		</div>","null","","","","","","","",""
"","","","","","main","stimulus","html-keyboard-response","31","169927","0.0-13.0-0.0-0.0","P_d232cdc08347950b409ee14fd2637d7c719f23ca35ed2ebaa5839673917fa8fb","6975d475053a04ec2a824d54","6975d6e5ed5452be53e382c1","4","[[0.060260165899335215,0.701326755417172,0.23841307868349276,0],[0.0000023008162070389276,0,0.027367528309657305,0.9726301708741357],[0.35387827489883494,0.2986732967287947,0.3474484283723703,0],[0.5858593039421993,0,0.3867710069645787,0.02736968909322194]]","[1.0963305126500609,0.18105958573962463,1.5809472755632945,1.1240499164293296]","[3,2,1,3,0,2,1,3,0,2,1,3,2,2,0,1,3,2,0,1,3,0,1,3,0,1,3,0,1,3,2,1,2,1,3,2,1,3,2,1,3,2,2,1,3,2,0,1,3,2,0,2,0,2,0,2,0,0,1,3,2,0,2,2,1,3,2,2,1,3,0,1,3,2,1,3,0,1,2,2,1,2,0,1,3,2,2,2,2,2,2,0,1,3,2,0,1,3,2,0,1,3,0,1,3,0,1,3,0,1,3,2,2,1,3,0,1,3,0,1,3,0,1,3,0,2,0,1,3,0,1,3,2,0,0,2,1,3,0,1,3,0,1,3,0,1,3,2,0,1,3,2,1,3,3,0,1,3,0,2,1,3,2,2,2,2,0,1,3,0,1,3,2,1,3,0,1,3,2,0,2,2,2,0,2,2,0,1,2,0,1,3,0,1,3,0,1,3,0,2,2,0,1,3,0,2,1,3,2,0,0,1,3,2,1,3,0,1,3,2,1,3,0,1,3,2,0,1,3,0,1,3,0,0,1,3,2,1,3,2,1,3,0,0,1,3,0,0,1,3,2,0,1,3,0,1,3,2,1,3,2,1,3,0,1,3,2,0,2,0,2,2,2,2,0,0,1,3,0,1]","40","280","8","440","","<div class=""feedback-message""></div><div class=""stimulus-container""><div class=""position-wrapper""><div class=""position-box "" data-position=""0""></div></div><div class=""position-wrapper""><div class=""position-box "" data-position=""1""></div></div><div class=""position-wrapper""><div class=""position-box active"" data-position=""2""></div></div><div class=""position-wrapper""><div class=""position-box "" data-position=""3""></div></div></div><div class=""finger-diagram-container"">
			<img src=""assets/finger-diagrams/finger-diagram-4pos.png"" alt=""Finger position guide"" class=""finger-diagram"" />
		</div>","j","2","j","true","0","1","1","",""
"","","","","","main","feedback","html-keyboard-response","32","170134","0.0-13.0-0.0-1.0","P_d232cdc08347950b409ee14fd2637d7c719f23ca35ed2ebaa5839673917fa8fb","6975d475053a04ec2a824d54","6975d6e5ed5452be53e382c1","4","[[0.060260165899335215,0.701326755417172,0.23841307868349276,0],[0.0000023008162070389276,0,0.027367528309657305,0.9726301708741357],[0.35387827489883494,0.2986732967287947,0.3474484283723703,0],[0.5858593039421993,0,0.3867710069645787,0.02736968909322194]]","[1.0963305126500609,0.18105958573962463,1.5809472755632945,1.1240499164293296]","[3,2,1,3,0,2,1,3,0,2,1,3,2,2,0,1,3,2,0,1,3,0,1,3,0,1,3,0,1,3,2,1,2,1,3,2,1,3,2,1,3,2,2,1,3,2,0,1,3,2,0,2,0,2,0,2,0,0,1,3,2,0,2,2,1,3,2,2,1,3,0,1,3,2,1,3,0,1,2,2,1,2,0,1,3,2,2,2,2,2,2,0,1,3,2,0,1,3,2,0,1,3,0,1,3,0,1,3,0,1,3,2,2,1,3,0,1,3,0,1,3,0,1,3,0,2,0,1,3,0,1,3,2,0,0,2,1,3,0,1,3,0,1,3,0,1,3,2,0,1,3,2,1,3,3,0,1,3,0,2,1,3,2,2,2,2,0,1,3,0,1,3,2,1,3,0,1,3,2,0,2,2,2,0,2,2,0,1,2,0,1,3,0,1,3,0,1,3,0,2,2,0,1,3,0,2,1,3,2,0,0,1,3,2,1,3,0,1,3,2,1,3,0,1,3,2,0,1,3,0,1,3,0,0,1,3,2,1,3,2,1,3,0,0,1,3,0,0,1,3,2,0,1,3,0,1,3,2,1,3,2,1,3,0,1,3,2,0,2,0,2,2,2,2,0,0,1,3,0,1]","40","280","8","null","","<div class=""feedback-message""><div class=""feedback-correct"">✓</div></div><div class=""stimulus-container""><div class=""position-wrapper""><div class=""position-box "" data-position=""0""></div></div><div class=""position-wrapper""><div class=""position-box "" data-position=""1""></div></div><div class=""position-wrapper""><div class=""position-box active"" data-position=""2""></div></div><div class=""position-wrapper""><div class=""position-box "" data-position=""3""></div></div></div><div class=""finger-diagram-container"">
			<img src=""assets/finger-diagrams/finger-diagram-4pos.png"" alt=""Finger position guide"" class=""finger-diagram"" />
		</div>","null","","","","","","","",""
"","","","","","main","rsi","html-keyboard-response","33","170259","0.0-13.0-1.0","P_d232cdc08347950b409ee14fd2637d7c719f23ca35ed2ebaa5839673917fa8fb","6975d475053a04ec2a824d54","6975d6e5ed5452be53e382c1","4","[[0.060260165899335215,0.701326755417172,0.23841307868349276,0],[0.0000023008162070389276,0,0.027367528309657305,0.9726301708741357],[0.35387827489883494,0.2986732967287947,0.3474484283723703,0],[0.5858593039421993,0,0.3867710069645787,0.02736968909322194]]","[1.0963305126500609,0.18105958573962463,1.5809472755632945,1.1240499164293296]","[3,2,1,3,0,2,1,3,0,2,1,3,2,2,0,1,3,2,0,1,3,0,1,3,0,1,3,0,1,3,2,1,2,1,3,2,1,3,2,1,3,2,2,1,3,2,0,1,3,2,0,2,0,2,0,2,0,0,1,3,2,0,2,2,1,3,2,2,1,3,0,1,3,2,1,3,0,1,2,2,1,2,0,1,3,2,2,2,2,2,2,0,1,3,2,0,1,3,2,0,1,3,0,1,3,0,1,3,0,1,3,2,2,1,3,0,1,3,0,1,3,0,1,3,0,2,0,1,3,0,1,3,2,0,0,2,1,3,0,1,3,0,1,3,0,1,3,2,0,1,3,2,1,3,3,0,1,3,0,2,1,3,2,2,2,2,0,1,3,0,1,3,2,1,3,0,1,3,2,0,2,2,2,0,2,2,0,1,2,0,1,3,0,1,3,0,1,3,0,2,2,0,1,3,0,2,1,3,2,0,0,1,3,2,1,3,0,1,3,2,1,3,0,1,3,2,0,1,3,0,1,3,0,0,1,3,2,1,3,2,1,3,0,0,1,3,0,0,1,3,2,0,1,3,0,1,3,2,1,3,2,1,3,0,1,3,2,0,2,0,2,2,2,2,0,0,1,3,0,1]","40","280","8","null","","<div class=""feedback-message""></div><div class=""stimulus-container""><div class=""position-wrapper""><div class=""position-box "" data-position=""0""></div></div><div class=""position-wrapper""><div class=""position-box "" data-position=""1""></div></div><div class=""position-wrapper""><div class=""position-box "" data-position=""2""></div></div><div class=""position-wrapper""><div class=""position-box "" data-position=""3""></div></div></div><div class=""finger-diagram-container"">
			<img src=""assets/finger-diagrams/finger-diagram-4pos.png"" alt=""Finger position guide"" class=""finger-diagram"" />
		</div>","null","","","","","","","",""
"","","","","","main","stimulus","html-keyboard-response","34","170674","0.0-14.0-0.0-0.0","P_d232cdc08347950b409ee14fd2637d7c719f23ca35ed2ebaa5839673917fa8fb","6975d475053a04ec2a824d54","6975d6e5ed5452be53e382c1","4","[[0.060260165899335215,0.701326755417172,0.23841307868349276,0],[0.0000023008162070389276,0,0.027367528309657305,0.9726301708741357],[0.35387827489883494,0.2986732967287947,0.3474484283723703,0],[0.5858593039421993,0,0.3867710069645787,0.02736968909322194]]","[1.0963305126500609,0.18105958573962463,1.5809472755632945,1.1240499164293296]","[3,2,1,3,0,2,1,3,0,2,1,3,2,2,0,1,3,2,0,1,3,0,1,3,0,1,3,0,1,3,2,1,2,1,3,2,1,3,2,1,3,2,2,1,3,2,0,1,3,2,0,2,0,2,0,2,0,0,1,3,2,0,2,2,1,3,2,2,1,3,0,1,3,2,1,3,0,1,2,2,1,2,0,1,3,2,2,2,2,2,2,0,1,3,2,0,1,3,2,0,1,3,0,1,3,0,1,3,0,1,3,2,2,1,3,0,1,3,0,1,3,0,1,3,0,2,0,1,3,0,1,3,2,0,0,2,1,3,0,1,3,0,1,3,0,1,3,2,0,1,3,2,1,3,3,0,1,3,0,2,1,3,2,2,2,2,0,1,3,0,1,3,2,1,3,0,1,3,2,0,2,2,2,0,2,2,0,1,2,0,1,3,0,1,3,0,1,3,0,2,2,0,1,3,0,2,1,3,2,0,0,1,3,2,1,3,0,1,3,2,1,3,0,1,3,2,0,1,3,0,1,3,0,0,1,3,2,1,3,2,1,3,0,0,1,3,0,0,1,3,2,0,1,3,0,1,3,2,1,3,2,1,3,0,1,3,2,0,2,0,2,2,2,2,0,0,1,3,0,1]","40","280","8","413","","<div class=""feedback-message""></div><div class=""stimulus-container""><div class=""position-wrapper""><div class=""position-box "" data-position=""0""></div></div><div class=""position-wrapper""><div class=""position-box active"" data-position=""1""></div></div><div class=""position-wrapper""><div class=""position-box "" data-position=""2""></div></div><div class=""position-wrapper""><div class=""position-box "" data-position=""3""></div></div></div><div class=""finger-diagram-container"">
			<img src=""assets/finger-diagrams/finger-diagram-4pos.png"" alt=""Finger position guide"" class=""finger-diagram"" />
		</div>","f","1","f","true","0","2","2","",""
"","","","","","main","feedback","html-keyboard-response","35","170885","0.0-14.0-0.0-1.0","P_d232cdc08347950b409ee14fd2637d7c719f23ca35ed2ebaa5839673917fa8fb","6975d475053a04ec2a824d54","6975d6e5ed5452be53e382c1","4","[[0.060260165899335215,0.701326755417172,0.23841307868349276,0],[0.0000023008162070389276,0,0.027367528309657305,0.9726301708741357],[0.35387827489883494,0.2986732967287947,0.3474484283723703,0],[0.5858593039421993,0,0.3867710069645787,0.02736968909322194]]","[1.0963305126500609,0.18105958573962463,1.5809472755632945,1.1240499164293296]","[3,2,1,3,0,2,1,3,0,2,1,3,2,2,0,1,3,2,0,1,3,0,1,3,0,1,3,0,1,3,2,1,2,1,3,2,1,3,2,1,3,2,2,1,3,2,0,1,3,2,0,2,0,2,0,2,0,0,1,3,2,0,2,2,1,3,2,2,1,3,0,1,3,2,1,3,0,1,2,2,1,2,0,1,3,2,2,2,2,2,2,0,1,3,2,0,1,3,2,0,1,3,0,1,3,0,1,3,0,1,3,2,2,1,3,0,1,3,0,1,3,0,1,3,0,2,0,1,3,0,1,3,2,0,0,2,1,3,0,1,3,0,1,3,0,1,3,2,0,1,3,2,1,3,3,0,1,3,0,2,1,3,2,2,2,2,0,1,3,0,1,3,2,1,3,0,1,3,2,0,2,2,2,0,2,2,0,1,2,0,1,3,0,1,3,0,1,3,0,2,2,0,1,3,0,2,1,3,2,0,0,1,3,2,1,3,0,1,3,2,1,3,0,1,3,2,0,1,3,0,1,3,0,0,1,3,2,1,3,2,1,3,0,0,1,3,0,0,1,3,2,0,1,3,0,1,3,2,1,3,2,1,3,0,1,3,2,0,2,0,2,2,2,2,0,0,1,3,0,1]","40","280","8","null","","<div class=""feedback-message""><div class=""feedback-correct"">✓</div></div><div class=""stimulus-container""><div class=""position-wrapper""><div class=""position-box "" data-position=""0""></div></div><div class=""position-wrapper""><div class=""position-box active"" data-position=""1""></div></div><div class=""position-wrapper""><div class=""position-box "" data-position=""2""></div></div><div class=""position-wrapper""><div class=""position-box "" data-position=""3""></div></div></div><div class=""finger-diagram-container"">
			<img src=""assets/finger-diagrams/finger-diagram-4pos.png"" alt=""Finger position guide"" class=""finger-diagram"" />
		</div>","null","","","","","","","",""
"","","","","","main","rsi","html-keyboard-response","36","171008","0.0-14.0-1.0","P_d232cdc08347950b409ee14fd2637d7c719f23ca35ed2ebaa5839673917fa8fb","6975d475053a04ec2a824d54","6975d6e5ed5452be53e382c1","4","[[0.060260165899335215,0.701326755417172,0.23841307868349276,0],[0.0000023008162070389276,0,0.027367528309657305,0.9726301708741357],[0.35387827489883494,0.2986732967287947,0.3474484283723703,0],[0.5858593039421993,0,0.3867710069645787,0.02736968909322194]]","[1.0963305126500609,0.18105958573962463,1.5809472755632945,1.1240499164293296]","[3,2,1,3,0,2,1,3,0,2,1,3,2,2,0,1,3,2,0,1,3,0,1,3,0,1,3,0,1,3,2,1,2,1,3,2,1,3,2,1,3,2,2,1,3,2,0,1,3,2,0,2,0,2,0,2,0,0,1,3,2,0,2,2,1,3,2,2,1,3,0,1,3,2,1,3,0,1,2,2,1,2,0,1,3,2,2,2,2,2,2,0,1,3,2,0,1,3,2,0,1,3,0,1,3,0,1,3,0,1,3,2,2,1,3,0,1,3,0,1,3,0,1,3,0,2,0,1,3,0,1,3,2,0,0,2,1,3,0,1,3,0,1,3,0,1,3,2,0,1,3,2,1,3,3,0,1,3,0,2,1,3,2,2,2,2,0,1,3,0,1,3,2,1,3,0,1,3,2,0,2,2,2,0,2,2,0,1,2,0,1,3,0,1,3,0,1,3,0,2,2,0,1,3,0,2,1,3,2,0,0,1,3,2,1,3,0,1,3,2,1,3,0,1,3,2,0,1,3,0,1,3,0,0,1,3,2,1,3,2,1,3,0,0,1,3,0,0,1,3,2,0,1,3,0,1,3,2,1,3,2,1,3,0,1,3,2,0,2,0,2,2,2,2,0,0,1,3,0,1]","40","280","8","null","","<div class=""feedback-message""></div><div class=""stimulus-container""><div class=""position-wrapper""><div class=""position-box "" data-position=""0""></div></div><div class=""position-wrapper""><div class=""position-box "" data-position=""1""></div></div><div class=""position-wrapper""><div class=""position-box "" data-position=""2""></div></div><div class=""position-wrapper""><div class=""position-box "" data-position=""3""></div></div></div><div class=""finger-diagram-container"">
			<img src=""assets/finger-diagrams/finger-diagram-4pos.png"" alt=""Finger position guide"" class=""finger-diagram"" />
		</div>","null","","","","","","","",""
"","","","","","main","stimulus","html-keyboard-response","37","171457","0.0-15.0-0.0-0.0","P_d232cdc08347950b409ee14fd2637d7c719f23ca35ed2ebaa5839673917fa8fb","6975d475053a04ec2a824d54","6975d6e5ed5452be53e382c1","4","[[0.060260165899335215,0.701326755417172,0.23841307868349276,0],[0.0000023008162070389276,0,0.027367528309657305,0.9726301708741357],[0.35387827489883494,0.2986732967287947,0.3474484283723703,0],[0.5858593039421993,0,0.3867710069645787,0.02736968909322194]]","[1.0963305126500609,0.18105958573962463,1.5809472755632945,1.1240499164293296]","[3,2,1,3,0,2,1,3,0,2,1,3,2,2,0,1,3,2,0,1,3,0,1,3,0,1,3,0,1,3,2,1,2,1,3,2,1,3,2,1,3,2,2,1,3,2,0,1,3,2,0,2,0,2,0,2,0,0,1,3,2,0,2,2,1,3,2,2,1,3,0,1,3,2,1,3,0,1,2,2,1,2,0,1,3,2,2,2,2,2,2,0,1,3,2,0,1,3,2,0,1,3,0,1,3,0,1,3,0,1,3,2,2,1,3,0,1,3,0,1,3,0,1,3,0,2,0,1,3,0,1,3,2,0,0,2,1,3,0,1,3,0,1,3,0,1,3,2,0,1,3,2,1,3,3,0,1,3,0,2,1,3,2,2,2,2,0,1,3,0,1,3,2,1,3,0,1,3,2,0,2,2,2,0,2,2,0,1,2,0,1,3,0,1,3,0,1,3,0,2,2,0,1,3,0,2,1,3,2,0,0,1,3,2,1,3,0,1,3,2,1,3,0,1,3,2,0,1,3,0,1,3,0,0,1,3,2,1,3,2,1,3,0,0,1,3,0,0,1,3,2,0,1,3,0,1,3,2,1,3,2,1,3,0,1,3,2,0,2,0,2,2,2,2,0,0,1,3,0,1]","40","280","8","447","","<div class=""feedback-message""></div><div class=""stimulus-container""><div class=""position-wrapper""><div class=""position-box "" data-position=""0""></div></div><div class=""position-wrapper""><div class=""position-box "" data-position=""1""></div></div><div class=""position-wrapper""><div class=""position-box "" data-position=""2""></div></div><div class=""position-wrapper""><div class=""position-box active"" data-position=""3""></div></div></div><div class=""finger-diagram-container"">
			<img src=""assets/finger-diagrams/finger-diagram-4pos.png"" alt=""Finger position guide"" class=""finger-diagram"" />
		</div>","k","3","k","true","0","3","3","",""
"","","","","","main","feedback","html-keyboard-response","38","171663","0.0-15.0-0.0-1.0","P_d232cdc08347950b409ee14fd2637d7c719f23ca35ed2ebaa5839673917fa8fb","6975d475053a04ec2a824d54","6975d6e5ed5452be53e382c1","4","[[0.060260165899335215,0.701326755417172,0.23841307868349276,0],[0.0000023008162070389276,0,0.027367528309657305,0.9726301708741357],[0.35387827489883494,0.2986732967287947,0.3474484283723703,0],[0.5858593039421993,0,0.3867710069645787,0.02736968909322194]]","[1.0963305126500609,0.18105958573962463,1.5809472755632945,1.1240499164293296]","[3,2,1,3,0,2,1,3,0,2,1,3,2,2,0,1,3,2,0,1,3,0,1,3,0,1,3,0,1,3,2,1,2,1,3,2,1,3,2,1,3,2,2,1,3,2,0,1,3,2,0,2,0,2,0,2,0,0,1,3,2,0,2,2,1,3,2,2,1,3,0,1,3,2,1,3,0,1,2,2,1,2,0,1,3,2,2,2,2,2,2,0,1,3,2,0,1,3,2,0,1,3,0,1,3,0,1,3,0,1,3,2,2,1,3,0,1,3,0,1,3,0,1,3,0,2,0,1,3,0,1,3,2,0,0,2,1,3,0,1,3,0,1,3,0,1,3,2,0,1,3,2,1,3,3,0,1,3,0,2,1,3,2,2,2,2,0,1,3,0,1,3,2,1,3,0,1,3,2,0,2,2,2,0,2,2,0,1,2,0,1,3,0,1,3,0,1,3,0,2,2,0,1,3,0,2,1,3,2,0,0,1,3,2,1,3,0,1,3,2,1,3,0,1,3,2,0,1,3,0,1,3,0,0,1,3,2,1,3,2,1,3,0,0,1,3,0,0,1,3,2,0,1,3,0,1,3,2,1,3,2,1,3,0,1,3,2,0,2,0,2,2,2,2,0,0,1,3,0,1]","40","280","8","null","","<div class=""feedback-message""><div class=""feedback-correct"">✓</div></div><div class=""stimulus-container""><div class=""position-wrapper""><div class=""position-box "" data-position=""0""></div></div><div class=""position-wrapper""><div class=""position-box "" data-position=""1""></div></div><div class=""position-wrapper""><div class=""position-box "" data-position=""2""></div></div><div class=""position-wrapper""><div class=""position-box active"" data-position=""3""></div></div></div><div class=""finger-diagram-container"">
			<img src=""assets/finger-diagrams/finger-diagram-4pos.png"" alt=""Finger position guide"" class=""finger-diagram"" />
		</div>","null","","","","","","","",""
"","","","","","main","rsi","html-keyboard-response","39","171791","0.0-15.0-1.0","P_d232cdc08347950b409ee14fd2637d7c719f23ca35ed2ebaa5839673917fa8fb","6975d475053a04ec2a824d54","6975d6e5ed5452be53e382c1","4","[[0.060260165899335215,0.701326755417172,0.23841307868349276,0],[0.0000023008162070389276,0,0.027367528309657305,0.9726301708741357],[0.35387827489883494,0.2986732967287947,0.3474484283723703,0],[0.5858593039421993,0,0.3867710069645787,0.02736968909322194]]","[1.0963305126500609,0.18105958573962463,1.5809472755632945,1.1240499164293296]","[3,2,1,3,0,2,1,3,0,2,1,3,2,2,0,1,3,2,0,1,3,0,1,3,0,1,3,0,1,3,2,1,2,1,3,2,1,3,2,1,3,2,2,1,3,2,0,1,3,2,0,2,0,2,0,2,0,0,1,3,2,0,2,2,1,3,2,2,1,3,0,1,3,2,1,3,0,1,2,2,1,2,0,1,3,2,2,2,2,2,2,0,1,3,2,0,1,3,2,0,1,3,0,1,3,0,1,3,0,1,3,2,2,1,3,0,1,3,0,1,3,0,1,3,0,2,0,1,3,0,1,3,2,0,0,2,1,3,0,1,3,0,1,3,0,1,3,2,0,1,3,2,1,3,3,0,1,3,0,2,1,3,2,2,2,2,0,1,3,0,1,3,2,1,3,0,1,3,2,0,2,2,2,0,2,2,0,1,2,0,1,3,0,1,3,0,1,3,0,2,2,0,1,3,0,2,1,3,2,0,0,1,3,2,1,3,0,1,3,2,1,3,0,1,3,2,0,1,3,0,1,3,0,0,1,3,2,1,3,2,1,3,0,0,1,3,0,0,1,3,2,0,1,3,0,1,3,2,1,3,2,1,3,0,1,3,2,0,2,0,2,2,2,2,0,0,1,3,0,1]","40","280","8","null","","<div class=""feedback-message""></div><div class=""stimulus-container""><div class=""position-wrapper""><div class=""position-box "" data-position=""0""></div></div><div class=""position-wrapper""><div class=""position-box "" data-position=""1""></div></div><div class=""position-wrapper""><div class=""position-box "" data-position=""2""></div></div><div class=""position-wrapper""><div class=""position-box "" data-position=""3""></div></div></div><div class=""finger-diagram-container"">
			<img src=""assets/finger-diagrams/finger-diagram-4pos.png"" alt=""Finger position guide"" class=""finger-diagram"" />
		</div>","null","","","","","","","",""
"","","","","","main","stimulus","html-keyboard-response","40","172326","0.0-16.0-0.0-0.0","P_d232cdc08347950b409ee14fd2637d7c719f23ca35ed2ebaa5839673917fa8fb","6975d475053a04ec2a824d54","6975d6e5ed5452be53e382c1","4","[[0.060260165899335215,0.701326755417172,0.23841307868349276,0],[0.0000023008162070389276,0,0.027367528309657305,0.9726301708741357],[0.35387827489883494,0.2986732967287947,0.3474484283723703,0],[0.5858593039421993,0,0.3867710069645787,0.02736968909322194]]","[1.0963305126500609,0.18105958573962463,1.5809472755632945,1.1240499164293296]","[3,2,1,3,0,2,1,3,0,2,1,3,2,2,0,1,3,2,0,1,3,0,1,3,0,1,3,0,1,3,2,1,2,1,3,2,1,3,2,1,3,2,2,1,3,2,0,1,3,2,0,2,0,2,0,2,0,0,1,3,2,0,2,2,1,3,2,2,1,3,0,1,3,2,1,3,0,1,2,2,1,2,0,1,3,2,2,2,2,2,2,0,1,3,2,0,1,3,2,0,1,3,0,1,3,0,1,3,0,1,3,2,2,1,3,0,1,3,0,1,3,0,1,3,0,2,0,1,3,0,1,3,2,0,0,2,1,3,0,1,3,0,1,3,0,1,3,2,0,1,3,2,1,3,3,0,1,3,0,2,1,3,2,2,2,2,0,1,3,0,1,3,2,1,3,0,1,3,2,0,2,2,2,0,2,2,0,1,2,0,1,3,0,1,3,0,1,3,0,2,2,0,1,3,0,2,1,3,2,0,0,1,3,2,1,3,0,1,3,2,1,3,0,1,3,2,0,1,3,0,1,3,0,0,1,3,2,1,3,2,1,3,0,0,1,3,0,0,1,3,2,0,1,3,0,1,3,2,1,3,2,1,3,0,1,3,2,0,2,0,2,2,2,2,0,0,1,3,0,1]","40","280","8","534","","<div class=""feedback-message""></div><div class=""stimulus-container""><div class=""position-wrapper""><div class=""position-box active"" data-position=""0""></div></div><div class=""position-wrapper""><div class=""position-box "" data-position=""1""></div></div><div class=""position-wrapper""><div class=""position-box "" data-position=""2""></div></div><div class=""position-wrapper""><div class=""position-box "" data-position=""3""></div></div></div><div class=""finger-diagram-container"">
			<img src=""assets/finger-diagrams/finger-diagram-4pos.png"" alt=""Finger position guide"" class=""finger-diagram"" />
		</div>","d","0","d","true","0","4","4","",""
"","","","","","main","feedback","html-keyboard-response","41","172544","0.0-16.0-0.0-1.0","P_d232cdc08347950b409ee14fd2637d7c719f23ca35ed2ebaa5839673917fa8fb","6975d475053a04ec2a824d54","6975d6e5ed5452be53e382c1","4","[[0.060260165899335215,0.701326755417172,0.23841307868349276,0],[0.0000023008162070389276,0,0.027367528309657305,0.9726301708741357],[0.35387827489883494,0.2986732967287947,0.3474484283723703,0],[0.5858593039421993,0,0.3867710069645787,0.02736968909322194]]","[1.0963305126500609,0.18105958573962463,1.5809472755632945,1.1240499164293296]","[3,2,1,3,0,2,1,3,0,2,1,3,2,2,0,1,3,2,0,1,3,0,1,3,0,1,3,0,1,3,2,1,2,1,3,2,1,3,2,1,3,2,2,1,3,2,0,1,3,2,0,2,0,2,0,2,0,0,1,3,2,0,2,2,1,3,2,2,1,3,0,1,3,2,1,3,0,1,2,2,1,2,0,1,3,2,2,2,2,2,2,0,1,3,2,0,1,3,2,0,1,3,0,1,3,0,1,3,0,1,3,2,2,1,3,0,1,3,0,1,3,0,1,3,0,2,0,1,3,0,1,3,2,0,0,2,1,3,0,1,3,0,1,3,0,1,3,2,0,1,3,2,1,3,3,0,1,3,0,2,1,3,2,2,2,2,0,1,3,0,1,3,2,1,3,0,1,3,2,0,2,2,2,0,2,2,0,1,2,0,1,3,0,1,3,0,1,3,0,2,2,0,1,3,0,2,1,3,2,0,0,1,3,2,1,3,0,1,3,2,1,3,0,1,3,2,0,1,3,0,1,3,0,0,1,3,2,1,3,2,1,3,0,0,1,3,0,0,1,3,2,0,1,3,0,1,3,2,1,3,2,1,3,0,1,3,2,0,2,0,2,2,2,2,0,0,1,3,0,1]","40","280","8","null","","<div class=""feedback-message""><div class=""feedback-correct"">✓</div></div><div class=""stimulus-container""><div class=""position-wrapper""><div class=""position-box active"" data-position=""0""></div></div><div class=""position-wrapper""><div class=""position-box "" data-position=""1""></div></div><div class=""position-wrapper""><div class=""position-box "" data-position=""2""></div></div><div class=""position-wrapper""><div class=""position-box "" data-position=""3""></div></div></div><div class=""finger-diagram-container"">
			<img src=""assets/finger-diagrams/finger-diagram-4pos.png"" alt=""Finger position guide"" class=""finger-diagram"" />
		</div>","null","","","","","","","",""
"","","","","","main","rsi","html-keyboard-response","42","172682","0.0-16.0-1.0","P_d232cdc08347950b409ee14fd2637d7c719f23ca35ed2ebaa5839673917fa8fb","6975d475053a04ec2a824d54","6975d6e5ed5452be53e382c1","4","[[0.060260165899335215,0.701326755417172,0.23841307868349276,0],[0.0000023008162070389276,0,0.027367528309657305,0.9726301708741357],[0.35387827489883494,0.2986732967287947,0.3474484283723703,0],[0.5858593039421993,0,0.3867710069645787,0.02736968909322194]]","[1.0963305126500609,0.18105958573962463,1.5809472755632945,1.1240499164293296]","[3,2,1,3,0,2,1,3,0,2,1,3,2,2,0,1,3,2,0,1,3,0,1,3,0,1,3,0,1,3,2,1,2,1,3,2,1,3,2,1,3,2,2,1,3,2,0,1,3,2,0,2,0,2,0,2,0,0,1,3,2,0,2,2,1,3,2,2,1,3,0,1,3,2,1,3,0,1,2,2,1,2,0,1,3,2,2,2,2,2,2,0,1,3,2,0,1,3,2,0,1,3,0,1,3,0,1,3,0,1,3,2,2,1,3,0,1,3,0,1,3,0,1,3,0,2,0,1,3,0,1,3,2,0,0,2,1,3,0,1,3,0,1,3,0,1,3,2,0,1,3,2,1,3,3,0,1,3,0,2,1,3,2,2,2,2,0,1,3,0,1,3,2,1,3,0,1,3,2,0,2,2,2,0,2,2,0,1,2,0,1,3,0,1,3,0,1,3,0,2,2,0,1,3,0,2,1,3,2,0,0,1,3,2,1,3,0,1,3,2,1,3,0,1,3,2,0,1,3,0,1,3,0,0,1,3,2,1,3,2,1,3,0,0,1,3,0,0,1,3,2,0,1,3,0,1,3,2,1,3,2,1,3,0,1,3,2,0,2,0,2,2,2,2,0,0,1,3,0,1]","40","280","8","null","","<div class=""feedback-message""></div><div class=""stimulus-container""><div class=""position-wrapper""><div class=""position-box "" data-position=""0""></div></div><div class=""position-wrapper""><div class=""position-box "" data-position=""1""></div></div><div class=""position-wrapper""><div class=""position-box "" data-position=""2""></div></div><div class=""position-wrapper""><div class=""position-box "" data-position=""3""></div></div></div><div class=""finger-diagram-container"">
			<img src=""assets/finger-diagrams/finger-diagram-4pos.png"" alt=""Finger position guide"" class=""finger-diagram"" />
		</div>","null","","","","","","","",""
"","","","","","main","stimulus","html-keyboard-response","43","173104","0.0-17.0-0.0-0.0","P_d232cdc08347950b409ee14fd2637d7c719f23ca35ed2ebaa5839673917fa8fb","6975d475053a04ec2a824d54","6975d6e5ed5452be53e382c1","4","[[0.060260165899335215,0.701326755417172,0.23841307868349276,0],[0.0000023008162070389276,0,0.027367528309657305,0.9726301708741357],[0.35387827489883494,0.2986732967287947,0.3474484283723703,0],[0.5858593039421993,0,0.3867710069645787,0.02736968909322194]]","[1.0963305126500609,0.18105958573962463,1.5809472755632945,1.1240499164293296]","[3,2,1,3,0,2,1,3,0,2,1,3,2,2,0,1,3,2,0,1,3,0,1,3,0,1,3,0,1,3,2,1,2,1,3,2,1,3,2,1,3,2,2,1,3,2,0,1,3,2,0,2,0,2,0,2,0,0,1,3,2,0,2,2,1,3,2,2,1,3,0,1,3,2,1,3,0,1,2,2,1,2,0,1,3,2,2,2,2,2,2,0,1,3,2,0,1,3,2,0,1,3,0,1,3,0,1,3,0,1,3,2,2,1,3,0,1,3,0,1,3,0,1,3,0,2,0,1,3,0,1,3,2,0,0,2,1,3,0,1,3,0,1,3,0,1,3,2,0,1,3,2,1,3,3,0,1,3,0,2,1,3,2,2,2,2,0,1,3,0,1,3,2,1,3,0,1,3,2,0,2,2,2,0,2,2,0,1,2,0,1,3,0,1,3,0,1,3,0,2,2,0,1,3,0,2,1,3,2,0,0,1,3,2,1,3,0,1,3,2,1,3,0,1,3,2,0,1,3,0,1,3,0,0,1,3,2,1,3,2,1,3,0,0,1,3,0,0,1,3,2,0,1,3,0,1,3,2,1,3,2,1,3,0,1,3,2,0,2,0,2,2,2,2,0,0,1,3,0,1]","40","280","8","421","","<div class=""feedback-message""></div><div class=""stimulus-container""><div class=""position-wrapper""><div class=""position-box "" data-position=""0""></div></div><div class=""position-wrapper""><div class=""position-box "" data-position=""1""></div></div><div class=""position-wrapper""><div class=""position-box active"" data-position=""2""></div></div><div class=""position-wrapper""><div class=""position-box "" data-position=""3""></div></div></div><div class=""finger-diagram-container"">
			<img src=""assets/finger-diagrams/finger-diagram-4pos.png"" alt=""Finger position guide"" class=""finger-diagram"" />
		</div>","j","2","j","true","0","5","5","",""
"","","","","","main","feedback","html-keyboard-response","44","173314","0.0-17.0-0.0-1.0","P_d232cdc08347950b409ee14fd2637d7c719f23ca35ed2ebaa5839673917fa8fb","6975d475053a04ec2a824d54","6975d6e5ed5452be53e382c1","4","[[0.060260165899335215,0.701326755417172,0.23841307868349276,0],[0.0000023008162070389276,0,0.027367528309657305,0.9726301708741357],[0.35387827489883494,0.2986732967287947,0.3474484283723703,0],[0.5858593039421993,0,0.3867710069645787,0.02736968909322194]]","[1.0963305126500609,0.18105958573962463,1.5809472755632945,1.1240499164293296]","[3,2,1,3,0,2,1,3,0,2,1,3,2,2,0,1,3,2,0,1,3,0,1,3,0,1,3,0,1,3,2,1,2,1,3,2,1,3,2,1,3,2,2,1,3,2,0,1,3,2,0,2,0,2,0,2,0,0,1,3,2,0,2,2,1,3,2,2,1,3,0,1,3,2,1,3,0,1,2,2,1,2,0,1,3,2,2,2,2,2,2,0,1,3,2,0,1,3,2,0,1,3,0,1,3,0,1,3,0,1,3,2,2,1,3,0,1,3,0,1,3,0,1,3,0,2,0,1,3,0,1,3,2,0,0,2,1,3,0,1,3,0,1,3,0,1,3,2,0,1,3,2,1,3,3,0,1,3,0,2,1,3,2,2,2,2,0,1,3,0,1,3,2,1,3,0,1,3,2,0,2,2,2,0,2,2,0,1,2,0,1,3,0,1,3,0,1,3,0,2,2,0,1,3,0,2,1,3,2,0,0,1,3,2,1,3,0,1,3,2,1,3,0,1,3,2,0,1,3,0,1,3,0,0,1,3,2,1,3,2,1,3,0,0,1,3,0,0,1,3,2,0,1,3,0,1,3,2,1,3,2,1,3,0,1,3,2,0,2,0,2,2,2,2,0,0,1,3,0,1]","40","280","8","null","","<div class=""feedback-message""><div class=""feedback-correct"">✓</div></div><div class=""stimulus-container""><div class=""position-wrapper""><div class=""position-box "" data-position=""0""></div></div><div class=""position-wrapper""><div class=""position-box "" data-position=""1""></div></div><div class=""position-wrapper""><div class=""position-box active"" data-position=""2""></div></div><div class=""position-wrapper""><div class=""position-box "" data-position=""3""></div></div></div><div class=""finger-diagram-container"">
			<img src=""assets/finger-diagrams/finger-diagram-4pos.png"" alt=""Finger position guide"" class=""finger-diagram"" />
		</div>","null","","","","","","","",""
"","","","","","main","rsi","html-keyboard-response","45","173443","0.0-17.0-1.0","P_d232cdc08347950b409ee14fd2637d7c719f23ca35ed2ebaa5839673917fa8fb","6975d475053a04ec2a824d54","6975d6e5ed5452be53e382c1","4","[[0.060260165899335215,0.701326755417172,0.23841307868349276,0],[0.0000023008162070389276,0,0.027367528309657305,0.9726301708741357],[0.35387827489883494,0.2986732967287947,0.3474484283723703,0],[0.5858593039421993,0,0.3867710069645787,0.02736968909322194]]","[1.0963305126500609,0.18105958573962463,1.5809472755632945,1.1240499164293296]","[3,2,1,3,0,2,1,3,0,2,1,3,2,2,0,1,3,2,0,1,3,0,1,3,0,1,3,0,1,3,2,1,2,1,3,2,1,3,2,1,3,2,2,1,3,2,0,1,3,2,0,2,0,2,0,2,0,0,1,3,2,0,2,2,1,3,2,2,1,3,0,1,3,2,1,3,0,1,2,2,1,2,0,1,3,2,2,2,2,2,2,0,1,3,2,0,1,3,2,0,1,3,0,1,3,0,1,3,0,1,3,2,2,1,3,0,1,3,0,1,3,0,1,3,0,2,0,1,3,0,1,3,2,0,0,2,1,3,0,1,3,0,1,3,0,1,3,2,0,1,3,2,1,3,3,0,1,3,0,2,1,3,2,2,2,2,0,1,3,0,1,3,2,1,3,0,1,3,2,0,2,2,2,0,2,2,0,1,2,0,1,3,0,1,3,0,1,3,0,2,2,0,1,3,0,2,1,3,2,0,0,1,3,2,1,3,0,1,3,2,1,3,0,1,3,2,0,1,3,0,1,3,0,0,1,3,2,1,3,2,1,3,0,0,1,3,0,0,1,3,2,0,1,3,0,1,3,2,1,3,2,1,3,0,1,3,2,0,2,0,2,2,2,2,0,0,1,3,0,1]","40","280","8","null","","<div class=""feedback-message""></div><div class=""stimulus-container""><div class=""position-wrapper""><div class=""position-box "" data-position=""0""></div></div><div class=""position-wrapper""><div class=""position-box "" data-position=""1""></div></div><div class=""position-wrapper""><div class=""position-box "" data-position=""2""></div></div><div class=""position-wrapper""><div class=""position-box "" data-position=""3""></div></div></div><div class=""finger-diagram-container"">
			<img src=""assets/finger-diagrams/finger-diagram-4pos.png"" alt=""Finger position guide"" class=""finger-diagram"" />
		</div>","null","","","","","","","",""
"","","","","","main","stimulus","html-keyboard-response","46","173983","0.0-18.0-0.0-0.0","P_d232cdc08347950b409ee14fd2637d7c719f23ca35ed2ebaa5839673917fa8fb","6975d475053a04ec2a824d54","6975d6e5ed5452be53e382c1","4","[[0.060260165899335215,0.701326755417172,0.23841307868349276,0],[0.0000023008162070389276,0,0.027367528309657305,0.9726301708741357],[0.35387827489883494,0.2986732967287947,0.3474484283723703,0],[0.5858593039421993,0,0.3867710069645787,0.02736968909322194]]","[1.0963305126500609,0.18105958573962463,1.5809472755632945,1.1240499164293296]","[3,2,1,3,0,2,1,3,0,2,1,3,2,2,0,1,3,2,0,1,3,0,1,3,0,1,3,0,1,3,2,1,2,1,3,2,1,3,2,1,3,2,2,1,3,2,0,1,3,2,0,2,0,2,0,2,0,0,1,3,2,0,2,2,1,3,2,2,1,3,0,1,3,2,1,3,0,1,2,2,1,2,0,1,3,2,2,2,2,2,2,0,1,3,2,0,1,3,2,0,1,3,0,1,3,0,1,3,0,1,3,2,2,1,3,0,1,3,0,1,3,0,1,3,0,2,0,1,3,0,1,3,2,0,0,2,1,3,0,1,3,0,1,3,0,1,3,2,0,1,3,2,1,3,3,0,1,3,0,2,1,3,2,2,2,2,0,1,3,0,1,3,2,1,3,0,1,3,2,0,2,2,2,0,2,2,0,1,2,0,1,3,0,1,3,0,1,3,0,2,2,0,1,3,0,2,1,3,2,0,0,1,3,2,1,3,0,1,3,2,1,3,0,1,3,2,0,1,3,0,1,3,0,0,1,3,2,1,3,2,1,3,0,0,1,3,0,0,1,3,2,0,1,3,0,1,3,2,1,3,2,1,3,0,1,3,2,0,2,0,2,2,2,2,0,0,1,3,0,1]","40","280","8","538","","<div class=""feedback-message""></div><div class=""stimulus-container""><div class=""position-wrapper""><div class=""position-box "" data-position=""0""></div></div><div class=""position-wrapper""><div class=""position-box active"" data-position=""1""></div></div><div class=""position-wrapper""><div class=""position-box "" data-position=""2""></div></div><div class=""position-wrapper""><div class=""position-box "" data-position=""3""></div></div></div><div class=""finger-diagram-container"">
			<img src=""assets/finger-diagrams/finger-diagram-4pos.png"" alt=""Finger position guide"" class=""finger-diagram"" />
		</div>","f","1","f","true","0","6","6","",""
"","","","","","main","feedback","html-keyboard-response","47","174196","0.0-18.0-0.0-1.0","P_d232cdc08347950b409ee14fd2637d7c719f23ca35ed2ebaa5839673917fa8fb","6975d475053a04ec2a824d54","6975d6e5ed5452be53e382c1","4","[[0.060260165899335215,0.701326755417172,0.23841307868349276,0],[0.0000023008162070389276,0,0.027367528309657305,0.9726301708741357],[0.35387827489883494,0.2986732967287947,0.3474484283723703,0],[0.5858593039421993,0,0.3867710069645787,0.02736968909322194]]","[1.0963305126500609,0.18105958573962463,1.5809472755632945,1.1240499164293296]","[3,2,1,3,0,2,1,3,0,2,1,3,2,2,0,1,3,2,0,1,3,0,1,3,0,1,3,0,1,3,2,1,2,1,3,2,1,3,2,1,3,2,2,1,3,2,0,1,3,2,0,2,0,2,0,2,0,0,1,3,2,0,2,2,1,3,2,2,1,3,0,1,3,2,1,3,0,1,2,2,1,2,0,1,3,2,2,2,2,2,2,0,1,3,2,0,1,3,2,0,1,3,0,1,3,0,1,3,0,1,3,2,2,1,3,0,1,3,0,1,3,0,1,3,0,2,0,1,3,0,1,3,2,0,0,2,1,3,0,1,3,0,1,3,0,1,3,2,0,1,3,2,1,3,3,0,1,3,0,2,1,3,2,2,2,2,0,1,3,0,1,3,2,1,3,0,1,3,2,0,2,2,2,0,2,2,0,1,2,0,1,3,0,1,3,0,1,3,0,2,2,0,1,3,0,2,1,3,2,0,0,1,3,2,1,3,0,1,3,2,1,3,0,1,3,2,0,1,3,0,1,3,0,0,1,3,2,1,3,2,1,3,0,0,1,3,0,0,1,3,2,0,1,3,0,1,3,2,1,3,2,1,3,0,1,3,2,0,2,0,2,2,2,2,0,0,1,3,0,1]","40","280","8","null","","<div class=""feedback-message""><div class=""feedback-correct"">✓</div></div><div class=""stimulus-container""><div class=""position-wrapper""><div class=""position-box "" data-position=""0""></div></div><div class=""position-wrapper""><div class=""position-box active"" data-position=""1""></div></div><div class=""position-wrapper""><div class=""position-box "" data-position=""2""></div></div><div class=""position-wrapper""><div class=""position-box "" data-position=""3""></div></div></div><div class=""finger-diagram-container"">
			<img src=""assets/finger-diagrams/finger-diagram-4pos.png"" alt=""Finger position guide"" class=""finger-diagram"" />
		</div>","null","","","","","","","",""
"","","","","","main","rsi","html-keyboard-response","48","174328","0.0-18.0-1.0","P_d232cdc08347950b409ee14fd2637d7c719f23ca35ed2ebaa5839673917fa8fb","6975d475053a04ec2a824d54","6975d6e5ed5452be53e382c1","4","[[0.060260165899335215,0.701326755417172,0.23841307868349276,0],[0.0000023008162070389276,0,0.027367528309657305,0.9726301708741357],[0.35387827489883494,0.2986732967287947,0.3474484283723703,0],[0.5858593039421993,0,0.3867710069645787,0.02736968909322194]]","[1.0963305126500609,0.18105958573962463,1.5809472755632945,1.1240499164293296]","[3,2,1,3,0,2,1,3,0,2,1,3,2,2,0,1,3,2,0,1,3,0,1,3,0,1,3,0,1,3,2,1,2,1,3,2,1,3,2,1,3,2,2,1,3,2,0,1,3,2,0,2,0,2,0,2,0,0,1,3,2,0,2,2,1,3,2,2,1,3,0,1,3,2,1,3,0,1,2,2,1,2,0,1,3,2,2,2,2,2,2,0,1,3,2,0,1,3,2,0,1,3,0,1,3,0,1,3,0,1,3,2,2,1,3,0,1,3,0,1,3,0,1,3,0,2,0,1,3,0,1,3,2,0,0,2,1,3,0,1,3,0,1,3,0,1,3,2,0,1,3,2,1,3,3,0,1,3,0,2,1,3,2,2,2,2,0,1,3,0,1,3,2,1,3,0,1,3,2,0,2,2,2,0,2,2,0,1,2,0,1,3,0,1,3,0,1,3,0,2,2,0,1,3,0,2,1,3,2,0,0,1,3,2,1,3,0,1,3,2,1,3,0,1,3,2,0,1,3,0,1,3,0,0,1,3,2,1,3,2,1,3,0,0,1,3,0,0,1,3,2,0,1,3,0,1,3,2,1,3,2,1,3,0,1,3,2,0,2,0,2,2,2,2,0,0,1,3,0,1]","40","280","8","null","","<div class=""feedback-message""></div><div class=""stimulus-container""><div class=""position-wrapper""><div class=""position-box "" data-position=""0""></div></div><div class=""position-wrapper""><div class=""position-box "" data-position=""1""></div></div><div class=""position-wrapper""><div class=""position-box "" data-position=""2""></div></div><div class=""position-wrapper""><div class=""position-box "" data-position=""3""></div></div></div><div class=""finger-diagram-container"">
			<img src=""assets/finger-diagrams/finger-diagram-4pos.png"" alt=""Finger position guide"" class=""finger-diagram"" />
		</div>","null","","","","","","","",""
"","","","","","main","stimulus","html-keyboard-response","49","174764","0.0-19.0-0.0-0.0","P_d232cdc08347950b409ee14fd2637d7c719f23ca35ed2ebaa5839673917fa8fb","6975d475053a04ec2a824d54","6975d6e5ed5452be53e382c1","4","[[0.060260165899335215,0.701326755417172,0.23841307868349276,0],[0.0000023008162070389276,0,0.027367528309657305,0.9726301708741357],[0.35387827489883494,0.2986732967287947,0.3474484283723703,0],[0.5858593039421993,0,0.3867710069645787,0.02736968909322194]]","[1.0963305126500609,0.18105958573962463,1.5809472755632945,1.1240499164293296]","[3,2,1,3,0,2,1,3,0,2,1,3,2,2,0,1,3,2,0,1,3,0,1,3,0,1,3,0,1,3,2,1,2,1,3,2,1,3,2,1,3,2,2,1,3,2,0,1,3,2,0,2,0,2,0,2,0,0,1,3,2,0,2,2,1,3,2,2,1,3,0,1,3,2,1,3,0,1,2,2,1,2,0,1,3,2,2,2,2,2,2,0,1,3,2,0,1,3,2,0,1,3,0,1,3,0,1,3,0,1,3,2,2,1,3,0,1,3,0,1,3,0,1,3,0,2,0,1,3,0,1,3,2,0,0,2,1,3,0,1,3,0,1,3,0,1,3,2,0,1,3,2,1,3,3,0,1,3,0,2,1,3,2,2,2,2,0,1,3,0,1,3,2,1,3,0,1,3,2,0,2,2,2,0,2,2,0,1,2,0,1,3,0,1,3,0,1,3,0,2,2,0,1,3,0,2,1,3,2,0,0,1,3,2,1,3,0,1,3,2,1,3,0,1,3,2,0,1,3,0,1,3,0,0,1,3,2,1,3,2,1,3,0,0,1,3,0,0,1,3,2,0,1,3,0,1,3,2,1,3,2,1,3,0,1,3,2,0,2,0,2,2,2,2,0,0,1,3,0,1]","40","280","8","434","","<div class=""feedback-message""></div><div class=""stimulus-container""><div class=""position-wrapper""><div class=""position-box "" data-position=""0""></div></div><div class=""position-wrapper""><div class=""position-box "" data-position=""1""></div></div><div class=""position-wrapper""><div class=""position-box "" data-position=""2""></div></div><div class=""position-wrapper""><div class=""position-box active"" data-position=""3""></div></div></div><div class=""finger-diagram-container"">
			<img src=""assets/finger-diagrams/finger-diagram-4pos.png"" alt=""Finger position guide"" class=""finger-diagram"" />
		</div>","k","3","k","true","0","7","7","",""
"","","","","","main","feedback","html-keyboard-response","50","174967","0.0-19.0-0.0-1.0","P_d232cdc08347950b409ee14fd2637d7c719f23ca35ed2ebaa5839673917fa8fb","6975d475053a04ec2a824d54","6975d6e5ed5452be53e382c1","4","[[0.060260165899335215,0.701326755417172,0.23841307868349276,0],[0.0000023008162070389276,0,0.027367528309657305,0.9726301708741357],[0.35387827489883494,0.2986732967287947,0.3474484283723703,0],[0.5858593039421993,0,0.3867710069645787,0.02736968909322194]]","[1.0963305126500609,0.18105958573962463,1.5809472755632945,1.1240499164293296]","[3,2,1,3,0,2,1,3,0,2,1,3,2,2,0,1,3,2,0,1,3,0,1,3,0,1,3,0,1,3,2,1,2,1,3,2,1,3,2,1,3,2,2,1,3,2,0,1,3,2,0,2,0,2,0,2,0,0,1,3,2,0,2,2,1,3,2,2,1,3,0,1,3,2,1,3,0,1,2,2,1,2,0,1,3,2,2,2,2,2,2,0,1,3,2,0,1,3,2,0,1,3,0,1,3,0,1,3,0,1,3,2,2,1,3,0,1,3,0,1,3,0,1,3,0,2,0,1,3,0,1,3,2,0,0,2,1,3,0,1,3,0,1,3,0,1,3,2,0,1,3,2,1,3,3,0,1,3,0,2,1,3,2,2,2,2,0,1,3,0,1,3,2,1,3,0,1,3,2,0,2,2,2,0,2,2,0,1,2,0,1,3,0,1,3,0,1,3,0,2,2,0,1,3,0,2,1,3,2,0,0,1,3,2,1,3,0,1,3,2,1,3,0,1,3,2,0,1,3,0,1,3,0,0,1,3,2,1,3,2,1,3,0,0,1,3,0,0,1,3,2,0,1,3,0,1,3,2,1,3,2,1,3,0,1,3,2,0,2,0,2,2,2,2,0,0,1,3,0,1]","40","280","8","null","","<div class=""feedback-message""><div class=""feedback-correct"">✓</div></div><div class=""stimulus-container""><div class=""position-wrapper""><div class=""position-box "" data-position=""0""></div></div><div class=""position-wrapper""><div class=""position-box "" data-position=""1""></div></div><div class=""position-wrapper""><div class=""position-box "" data-position=""2""></div></div><div class=""position-wrapper""><div class=""position-box active"" data-position=""3""></div></div></div><div class=""finger-diagram-container"">
			<img src=""assets/finger-diagrams/finger-diagram-4pos.png"" alt=""Finger position guide"" class=""finger-diagram"" />
		</div>","null","","","","","","","",""
"","","","","","main","rsi","html-keyboard-response","51","175102","0.0-19.0-1.0","P_d232cdc08347950b409ee14fd2637d7c719f23ca35ed2ebaa5839673917fa8fb","6975d475053a04ec2a824d54","6975d6e5ed5452be53e382c1","4","[[0.060260165899335215,0.701326755417172,0.23841307868349276,0],[0.0000023008162070389276,0,0.027367528309657305,0.9726301708741357],[0.35387827489883494,0.2986732967287947,0.3474484283723703,0],[0.5858593039421993,0,0.3867710069645787,0.02736968909322194]]","[1.0963305126500609,0.18105958573962463,1.5809472755632945,1.1240499164293296]","[3,2,1,3,0,2,1,3,0,2,1,3,2,2,0,1,3,2,0,1,3,0,1,3,0,1,3,0,1,3,2,1,2,1,3,2,1,3,2,1,3,2,2,1,3,2,0,1,3,2,0,2,0,2,0,2,0,0,1,3,2,0,2,2,1,3,2,2,1,3,0,1,3,2,1,3,0,1,2,2,1,2,0,1,3,2,2,2,2,2,2,0,1,3,2,0,1,3,2,0,1,3,0,1,3,0,1,3,0,1,3,2,2,1,3,0,1,3,0,1,3,0,1,3,0,2,0,1,3,0,1,3,2,0,0,2,1,3,0,1,3,0,1,3,0,1,3,2,0,1,3,2,1,3,3,0,1,3,0,2,1,3,2,2,2,2,0,1,3,0,1,3,2,1,3,0,1,3,2,0,2,2,2,0,2,2,0,1,2,0,1,3,0,1,3,0,1,3,0,2,2,0,1,3,0,2,1,3,2,0,0,1,3,2,1,3,0,1,3,2,1,3,0,1,3,2,0,1,3,0,1,3,0,0,1,3,2,1,3,2,1,3,0,0,1,3,0,0,1,3,2,0,1,3,0,1,3,2,1,3,2,1,3,0,1,3,2,0,2,0,2,2,2,2,0,0,1,3,0,1]","40","280","8","null","","<div class=""feedback-message""></div><div class=""stimulus-container""><div class=""position-wrapper""><div class=""position-box "" data-position=""0""></div></div><div class=""position-wrapper""><div class=""position-box "" data-position=""1""></div></div><div class=""position-wrapper""><div class=""position-box "" data-position=""2""></div></div><div class=""position-wrapper""><div class=""position-box "" data-position=""3""></div></div></div><div class=""finger-diagram-container"">
			<img src=""assets/finger-diagrams/finger-diagram-4pos.png"" alt=""Finger position guide"" class=""finger-diagram"" />
		</div>","null","","","","","","","",""
"","","","","","main","stimulus","html-keyboard-response","52","175571","0.0-20.0-0.0-0.0","P_d232cdc08347950b409ee14fd2637d7c719f23ca35ed2ebaa5839673917fa8fb","6975d475053a04ec2a824d54","6975d6e5ed5452be53e382c1","4","[[0.060260165899335215,0.701326755417172,0.23841307868349276,0],[0.0000023008162070389276,0,0.027367528309657305,0.9726301708741357],[0.35387827489883494,0.2986732967287947,0.3474484283723703,0],[0.5858593039421993,0,0.3867710069645787,0.02736968909322194]]","[1.0963305126500609,0.18105958573962463,1.5809472755632945,1.1240499164293296]","[3,2,1,3,0,2,1,3,0,2,1,3,2,2,0,1,3,2,0,1,3,0,1,3,0,1,3,0,1,3,2,1,2,1,3,2,1,3,2,1,3,2,2,1,3,2,0,1,3,2,0,2,0,2,0,2,0,0,1,3,2,0,2,2,1,3,2,2,1,3,0,1,3,2,1,3,0,1,2,2,1,2,0,1,3,2,2,2,2,2,2,0,1,3,2,0,1,3,2,0,1,3,0,1,3,0,1,3,0,1,3,2,2,1,3,0,1,3,0,1,3,0,1,3,0,2,0,1,3,0,1,3,2,0,0,2,1,3,0,1,3,0,1,3,0,1,3,2,0,1,3,2,1,3,3,0,1,3,0,2,1,3,2,2,2,2,0,1,3,0,1,3,2,1,3,0,1,3,2,0,2,2,2,0,2,2,0,1,2,0,1,3,0,1,3,0,1,3,0,2,2,0,1,3,0,2,1,3,2,0,0,1,3,2,1,3,0,1,3,2,1,3,0,1,3,2,0,1,3,0,1,3,0,0,1,3,2,1,3,2,1,3,0,0,1,3,0,0,1,3,2,0,1,3,0,1,3,2,1,3,2,1,3,0,1,3,2,0,2,0,2,2,2,2,0,0,1,3,0,1]","40","280","8","467","","<div class=""feedback-message""></div><div class=""stimulus-container""><div class=""position-wrapper""><div class=""position-box active"" data-position=""0""></div></div><div class=""position-wrapper""><div class=""position-box "" data-position=""1""></div></div><div class=""position-wrapper""><div class=""position-box "" data-position=""2""></div></div><div class=""position-wrapper""><div class=""position-box "" data-position=""3""></div></div></div><div class=""finger-diagram-container"">
			<img src=""assets/finger-diagrams/finger-diagram-4pos.png"" alt=""Finger position guide"" class=""finger-diagram"" />
		</div>","d","0","d","true","0","8","8","",""
"","","","","","main","feedback","html-keyboard-response","53","175773","0.0-20.0-0.0-1.0","P_d232cdc08347950b409ee14fd2637d7c719f23ca35ed2ebaa5839673917fa8fb","6975d475053a04ec2a824d54","6975d6e5ed5452be53e382c1","4","[[0.060260165899335215,0.701326755417172,0.23841307868349276,0],[0.0000023008162070389276,0,0.027367528309657305,0.9726301708741357],[0.35387827489883494,0.2986732967287947,0.3474484283723703,0],[0.5858593039421993,0,0.3867710069645787,0.02736968909322194]]","[1.0963305126500609,0.18105958573962463,1.5809472755632945,1.1240499164293296]","[3,2,1,3,0,2,1,3,0,2,1,3,2,2,0,1,3,2,0,1,3,0,1,3,0,1,3,0,1,3,2,1,2,1,3,2,1,3,2,1,3,2,2,1,3,2,0,1,3,2,0,2,0,2,0,2,0,0,1,3,2,0,2,2,1,3,2,2,1,3,0,1,3,2,1,3,0,1,2,2,1,2,0,1,3,2,2,2,2,2,2,0,1,3,2,0,1,3,2,0,1,3,0,1,3,0,1,3,0,1,3,2,2,1,3,0,1,3,0,1,3,0,1,3,0,2,0,1,3,0,1,3,2,0,0,2,1,3,0,1,3,0,1,3,0,1,3,2,0,1,3,2,1,3,3,0,1,3,0,2,1,3,2,2,2,2,0,1,3,0,1,3,2,1,3,0,1,3,2,0,2,2,2,0,2,2,0,1,2,0,1,3,0,1,3,0,1,3,0,2,2,0,1,3,0,2,1,3,2,0,0,1,3,2,1,3,0,1,3,2,1,3,0,1,3,2,0,1,3,0,1,3,0,0,1,3,2,1,3,2,1,3,0,0,1,3,0,0,1,3,2,0,1,3,0,1,3,2,1,3,2,1,3,0,1,3,2,0,2,0,2,2,2,2,0,0,1,3,0,1]","40","280","8","null","","<div class=""feedback-message""><div class=""feedback-correct"">✓</div></div><div class=""stimulus-container""><div class=""position-wrapper""><div class=""position-box active"" data-position=""0""></div></div><div class=""position-wrapper""><div class=""position-box "" data-position=""1""></div></div><div class=""position-wrapper""><div class=""position-box "" data-position=""2""></div></div><div class=""position-wrapper""><div class=""position-box "" data-position=""3""></div></div></div><div class=""finger-diagram-container"">
			<img src=""assets/finger-diagrams/finger-diagram-4pos.png"" alt=""Finger position guide"" class=""finger-diagram"" />
		</div>","null","","","","","","","",""
