"success","timeout","failed_images","failed_audio","failed_video","phase","experiment_trial_type","trial_type","trial_index","time_elapsed","internal_node_id","subject_id","study_id","session_id","matrix_size","transition_matrix","conditional_entropies","sequence","trials_per_block","total_trials","practice_trials","rt","view_history","stimulus","response","position","correct_key","conditional_entropy","surprisal","correct","block","trial_in_block","overall_trial","question_order","questionnaire_item"
"true","false","[]","[]","[]","preload","preload","preload","0","33","0.0-0.0","R_m4ommtwk0e","N/A","N/A","8","[[0.36839347962148555,0.18582932025876694,0.007099807624767577,0,0.15137431597034123,0.00004704006797403088,0.2872560364566646,0],[0.0013850875680487965,0.18586284378261636,0,0,0.15139295312519652,0.6140674167743133,0.047291698749824945,0],[0.3745104341474003,0.1858379056676631,0,0,0.1513860127041273,0.00003380252449319531,0.2882318449563162,0],[0,0,0.9928611407415743,0,0.007138859258423303,0,2.311377831611195e-15,0],[0.22458671329618773,0.185844462376646,0,0,0.15139017778414854,0.2825562524203812,0.15562239412263662,0],[0,0.06864090234378073,0,0.10077365119056511,0.1374129705374384,6.273943863605896e-16,1.1140760074060623e-14,0.693172475928204],[0.031129704215363187,0.18578981018498472,0,0,0.1513426271865414,0.10330110461376944,0.2216034943604301,0.30683325943891115],[0,0.0022002880315079767,0,0.8992323487845896,0.09856736318389477,5.110966943270374e-15,2.681112802777004e-15,0]]","[1.9625341748528926,1.5169145114059281,1.9119656630922006,0.06116306098273378,2.280322870927974,1.3588843500111427,2.362303036870217,0.486703132356095]","[6,7,3,2,4,0,6,4,4,5,7,4,6,0,6,7,3,2,0,0,4,6,1,5,7,3,2,1,4,6,5,7,3,2,6,6,6,0,0,0,0,1,5,4,1,5,7,3,2,6,5,4,5,7,3,2,6,7,3,2,1,1,1,5,7,3,2,1,1,1,4,5,7,3,2,6,4,6,6,4]","80","80","16","","","","","","","","","","","","","",""
"true","","","","","fullscreen","fullscreen","fullscreen","1","2062","0.0-1.0","R_m4ommtwk0e","N/A","N/A","8","[[0.36839347962148555,0.18582932025876694,0.007099807624767577,0,0.15137431597034123,0.00004704006797403088,0.2872560364566646,0],[0.0013850875680487965,0.18586284378261636,0,0,0.15139295312519652,0.6140674167743133,0.047291698749824945,0],[0.3745104341474003,0.1858379056676631,0,0,0.1513860127041273,0.00003380252449319531,0.2882318449563162,0],[0,0,0.9928611407415743,0,0.007138859258423303,0,2.311377831611195e-15,0],[0.22458671329618773,0.185844462376646,0,0,0.15139017778414854,0.2825562524203812,0.15562239412263662,0],[0,0.06864090234378073,0,0.10077365119056511,0.1374129705374384,6.273943863605896e-16,1.1140760074060623e-14,0.693172475928204],[0.031129704215363187,0.18578981018498472,0,0,0.1513426271865414,0.10330110461376944,0.2216034943604301,0.30683325943891115],[0,0.0022002880315079767,0,0.8992323487845896,0.09856736318389477,5.110966943270374e-15,2.681112802777004e-15,0]]","[1.9625341748528926,1.5169145114059281,1.9119656630922006,0.06116306098273378,2.280322870927974,1.3588843500111427,2.362303036870217,0.486703132356095]","[6,7,3,2,4,0,6,4,4,5,7,4,6,0,6,7,3,2,0,0,4,6,1,5,7,3,2,1,4,6,5,7,3,2,6,6,6,0,0,0,0,1,5,4,1,5,7,3,2,6,5,4,5,7,3,2,6,7,3,2,1,1,1,5,7,3,2,1,1,1,4,5,7,3,2,6,4,6,6,4]","80","80","16","1026","","","","","","","","","","","","",""
"","","","","","instructions","instructions","instructions","2","5470","0.0-2.0","R_m4ommtwk0e","N/A","N/A","8","[[0.36839347962148555,0.18582932025876694,0.007099807624767577,0,0.15137431597034123,0.00004704006797403088,0.2872560364566646,0],[0.0013850875680487965,0.18586284378261636,0,0,0.15139295312519652,0.6140674167743133,0.047291698749824945,0],[0.3745104341474003,0.1858379056676631,0,0,0.1513860127041273,0.00003380252449319531,0.2882318449563162,0],[0,0,0.9928611407415743,0,0.007138859258423303,0,2.311377831611195e-15,0],[0.22458671329618773,0.185844462376646,0,0,0.15139017778414854,0.2825562524203812,0.15562239412263662,0],[0,0.06864090234378073,0,0.10077365119056511,0.1374129705374384,6.273943863605896e-16,1.1140760074060623e-14,0.693172475928204],[0.031129704215363187,0.18578981018498472,0,0,0.1513426271865414,0.10330110461376944,0.2216034943604301,0.30683325943891115],[0,0.0022002880315079767,0,0.8992323487845896,0.09856736318389477,5.110966943270374e-15,2.681112802777004e-15,0]]","[1.9625341748528926,1.5169145114059281,1.9119656630922006,0.06116306098273378,2.280322870927974,1.3588843500111427,2.362303036870217,0.486703132356095]","[6,7,3,2,4,0,6,4,4,5,7,4,6,0,6,7,3,2,0,0,4,6,1,5,7,3,2,1,4,6,5,7,3,2,6,6,6,0,0,0,0,1,5,4,1,5,7,3,2,6,5,4,5,7,3,2,6,7,3,2,1,1,1,5,7,3,2,1,1,1,4,5,7,3,2,6,4,6,6,4]","80","80","16","3407","[{""page_index"":0,""viewing_time"":900},{""page_index"":1,""viewing_time"":1239},{""page_index"":2,""viewing_time"":1269}]","","","","","","","","","","","",""
"","","","","","","","html-keyboard-response","3","7337","0.0-3.0","R_m4ommtwk0e","N/A","N/A","8","[[0.36839347962148555,0.18582932025876694,0.007099807624767577,0,0.15137431597034123,0.00004704006797403088,0.2872560364566646,0],[0.0013850875680487965,0.18586284378261636,0,0,0.15139295312519652,0.6140674167743133,0.047291698749824945,0],[0.3745104341474003,0.1858379056676631,0,0,0.1513860127041273,0.00003380252449319531,0.2882318449563162,0],[0,0,0.9928611407415743,0,0.007138859258423303,0,2.311377831611195e-15,0],[0.22458671329618773,0.185844462376646,0,0,0.15139017778414854,0.2825562524203812,0.15562239412263662,0],[0,0.06864090234378073,0,0.10077365119056511,0.1374129705374384,6.273943863605896e-16,1.1140760074060623e-14,0.693172475928204],[0.031129704215363187,0.18578981018498472,0,0,0.1513426271865414,0.10330110461376944,0.2216034943604301,0.30683325943891115],[0,0.0022002880315079767,0,0.8992323487845896,0.09856736318389477,5.110966943270374e-15,2.681112802777004e-15,0]]","[1.9625341748528926,1.5169145114059281,1.9119656630922006,0.06116306098273378,2.280322870927974,1.3588843500111427,2.362303036870217,0.486703132356095]","[6,7,3,2,4,0,6,4,4,5,7,4,6,0,6,7,3,2,0,0,4,6,1,5,7,3,2,1,4,6,5,7,3,2,6,6,6,0,0,0,0,1,5,4,1,5,7,3,2,6,5,4,5,7,3,2,6,7,3,2,1,1,1,5,7,3,2,1,1,1,4,5,7,3,2,6,4,6,6,4]","80","80","16","1867","","
				<div class=""instruction-text"">
					<h2>Practice</h2>
					<p>You wil start with 16 practice trials to get familiar with the task.</p>
					<p><strong>Ready to practice? Please rest your fingers on these keys throughout the task, as demonstrated below:</strong></p>
					<img src=""assets/key-mappings-8pos.gif"" alt=""Key Mapping"" class=""key-mapping-image"" />
					<p style=""text-align: center;"">Press any key to begin the practice trials.</p>
				</div>"," ","","","","","","","","","",""
"","","","","","practice","stimulus","html-keyboard-response","4","8340","0.0-4.0-0.0-0.0","R_m4ommtwk0e","N/A","N/A","8","[[0.36839347962148555,0.18582932025876694,0.007099807624767577,0,0.15137431597034123,0.00004704006797403088,0.2872560364566646,0],[0.0013850875680487965,0.18586284378261636,0,0,0.15139295312519652,0.6140674167743133,0.047291698749824945,0],[0.3745104341474003,0.1858379056676631,0,0,0.1513860127041273,0.00003380252449319531,0.2882318449563162,0],[0,0,0.9928611407415743,0,0.007138859258423303,0,2.311377831611195e-15,0],[0.22458671329618773,0.185844462376646,0,0,0.15139017778414854,0.2825562524203812,0.15562239412263662,0],[0,0.06864090234378073,0,0.10077365119056511,0.1374129705374384,6.273943863605896e-16,1.1140760074060623e-14,0.693172475928204],[0.031129704215363187,0.18578981018498472,0,0,0.1513426271865414,0.10330110461376944,0.2216034943604301,0.30683325943891115],[0,0.0022002880315079767,0,0.8992323487845896,0.09856736318389477,5.110966943270374e-15,2.681112802777004e-15,0]]","[1.9625341748528926,1.5169145114059281,1.9119656630922006,0.06116306098273378,2.280322870927974,1.3588843500111427,2.362303036870217,0.486703132356095]","[6,7,3,2,4,0,6,4,4,5,7,4,6,0,6,7,3,2,0,0,4,6,1,5,7,3,2,1,4,6,5,7,3,2,6,6,6,0,0,0,0,1,5,4,1,5,7,3,2,6,5,4,5,7,3,2,6,7,3,2,1,1,1,5,7,3,2,1,1,1,4,5,7,3,2,6,4,6,6,4]","80","80","16","1001","","<div class=""feedback-message""></div><div class=""stimulus-container""><div class=""position-wrapper""><div class=""key-label"">A</div><div class=""position-box "" data-position=""0""></div></div><div class=""position-wrapper""><div class=""key-label"">S</div><div class=""position-box "" data-position=""1""></div></div><div class=""position-wrapper""><div class=""key-label"">D</div><div class=""position-box "" data-position=""2""></div></div><div class=""position-wrapper""><div class=""key-label"">F</div><div class=""position-box "" data-position=""3""></div></div><div class=""position-wrapper""><div class=""key-label"">J</div><div class=""position-box "" data-position=""4""></div></div><div class=""position-wrapper""><div class=""key-label"">K</div><div class=""position-box active"" data-position=""5""></div></div><div class=""position-wrapper""><div class=""key-label"">L</div><div class=""position-box "" data-position=""6""></div></div><div class=""position-wrapper""><div class=""key-label"">;</div><div class=""position-box "" data-position=""7""></div></div></div><div class=""finger-diagram-container"">
			<img src=""assets/finger-diagrams/finger-diagram-8pos.png"" alt=""Finger position guide"" class=""finger-diagram"" />
		</div>","j","5","k","1.3588843500111427","null","false","","","","",""
"","","","","","practice","feedback","html-keyboard-response","5","8547","0.0-4.0-0.0-1.0","R_m4ommtwk0e","N/A","N/A","8","[[0.36839347962148555,0.18582932025876694,0.007099807624767577,0,0.15137431597034123,0.00004704006797403088,0.2872560364566646,0],[0.0013850875680487965,0.18586284378261636,0,0,0.15139295312519652,0.6140674167743133,0.047291698749824945,0],[0.3745104341474003,0.1858379056676631,0,0,0.1513860127041273,0.00003380252449319531,0.2882318449563162,0],[0,0,0.9928611407415743,0,0.007138859258423303,0,2.311377831611195e-15,0],[0.22458671329618773,0.185844462376646,0,0,0.15139017778414854,0.2825562524203812,0.15562239412263662,0],[0,0.06864090234378073,0,0.10077365119056511,0.1374129705374384,6.273943863605896e-16,1.1140760074060623e-14,0.693172475928204],[0.031129704215363187,0.18578981018498472,0,0,0.1513426271865414,0.10330110461376944,0.2216034943604301,0.30683325943891115],[0,0.0022002880315079767,0,0.8992323487845896,0.09856736318389477,5.110966943270374e-15,2.681112802777004e-15,0]]","[1.9625341748528926,1.5169145114059281,1.9119656630922006,0.06116306098273378,2.280322870927974,1.3588843500111427,2.362303036870217,0.486703132356095]","[6,7,3,2,4,0,6,4,4,5,7,4,6,0,6,7,3,2,0,0,4,6,1,5,7,3,2,1,4,6,5,7,3,2,6,6,6,0,0,0,0,1,5,4,1,5,7,3,2,6,5,4,5,7,3,2,6,7,3,2,1,1,1,5,7,3,2,1,1,1,4,5,7,3,2,6,4,6,6,4]","80","80","16","null","","<div class=""feedback-message""><div class=""feedback-error"">✗<br>Try again!</div></div><div class=""stimulus-container""><div class=""position-wrapper""><div class=""key-label"">A</div><div class=""position-box "" data-position=""0""></div></div><div class=""position-wrapper""><div class=""key-label"">S</div><div class=""position-box "" data-position=""1""></div></div><div class=""position-wrapper""><div class=""key-label"">D</div><div class=""position-box "" data-position=""2""></div></div><div class=""position-wrapper""><div class=""key-label"">F</div><div class=""position-box "" data-position=""3""></div></div><div class=""position-wrapper""><div class=""key-label"">J</div><div class=""position-box "" data-position=""4""></div></div><div class=""position-wrapper""><div class=""key-label"">K</div><div class=""position-box active"" data-position=""5""></div></div><div class=""position-wrapper""><div class=""key-label"">L</div><div class=""position-box "" data-position=""6""></div></div><div class=""position-wrapper""><div class=""key-label"">;</div><div class=""position-box "" data-position=""7""></div></div></div><div class=""finger-diagram-container"">
			<img src=""assets/finger-diagrams/finger-diagram-8pos.png"" alt=""Finger position guide"" class=""finger-diagram"" />
		</div>","null","","","","","","","","","",""
"","","","","","practice","retry","html-keyboard-response","6","8752","0.0-4.0-0.1-0.1","R_m4ommtwk0e","N/A","N/A","8","[[0.36839347962148555,0.18582932025876694,0.007099807624767577,0,0.15137431597034123,0.00004704006797403088,0.2872560364566646,0],[0.0013850875680487965,0.18586284378261636,0,0,0.15139295312519652,0.6140674167743133,0.047291698749824945,0],[0.3745104341474003,0.1858379056676631,0,0,0.1513860127041273,0.00003380252449319531,0.2882318449563162,0],[0,0,0.9928611407415743,0,0.007138859258423303,0,2.311377831611195e-15,0],[0.22458671329618773,0.185844462376646,0,0,0.15139017778414854,0.2825562524203812,0.15562239412263662,0],[0,0.06864090234378073,0,0.10077365119056511,0.1374129705374384,6.273943863605896e-16,1.1140760074060623e-14,0.693172475928204],[0.031129704215363187,0.18578981018498472,0,0,0.1513426271865414,0.10330110461376944,0.2216034943604301,0.30683325943891115],[0,0.0022002880315079767,0,0.8992323487845896,0.09856736318389477,5.110966943270374e-15,2.681112802777004e-15,0]]","[1.9625341748528926,1.5169145114059281,1.9119656630922006,0.06116306098273378,2.280322870927974,1.3588843500111427,2.362303036870217,0.486703132356095]","[6,7,3,2,4,0,6,4,4,5,7,4,6,0,6,7,3,2,0,0,4,6,1,5,7,3,2,1,4,6,5,7,3,2,6,6,6,0,0,0,0,1,5,4,1,5,7,3,2,6,5,4,5,7,3,2,6,7,3,2,1,1,1,5,7,3,2,1,1,1,4,5,7,3,2,6,4,6,6,4]","80","80","16","203","","<div class=""feedback-message""></div><div class=""stimulus-container""><div class=""position-wrapper""><div class=""key-label"">A</div><div class=""position-box "" data-position=""0""></div></div><div class=""position-wrapper""><div class=""key-label"">S</div><div class=""position-box "" data-position=""1""></div></div><div class=""position-wrapper""><div class=""key-label"">D</div><div class=""position-box "" data-position=""2""></div></div><div class=""position-wrapper""><div class=""key-label"">F</div><div class=""position-box "" data-position=""3""></div></div><div class=""position-wrapper""><div class=""key-label"">J</div><div class=""position-box "" data-position=""4""></div></div><div class=""position-wrapper""><div class=""key-label"">K</div><div class=""position-box active"" data-position=""5""></div></div><div class=""position-wrapper""><div class=""key-label"">L</div><div class=""position-box "" data-position=""6""></div></div><div class=""position-wrapper""><div class=""key-label"">;</div><div class=""position-box "" data-position=""7""></div></div></div><div class=""finger-diagram-container"">
			<img src=""assets/finger-diagrams/finger-diagram-8pos.png"" alt=""Finger position guide"" class=""finger-diagram"" />
		</div>","k","5","k","1.3588843500111427","null","true","","","","",""
"","","","","","practice","feedback","html-keyboard-response","7","8954","0.0-4.0-0.1-1.1","R_m4ommtwk0e","N/A","N/A","8","[[0.36839347962148555,0.18582932025876694,0.007099807624767577,0,0.15137431597034123,0.00004704006797403088,0.2872560364566646,0],[0.0013850875680487965,0.18586284378261636,0,0,0.15139295312519652,0.6140674167743133,0.047291698749824945,0],[0.3745104341474003,0.1858379056676631,0,0,0.1513860127041273,0.00003380252449319531,0.2882318449563162,0],[0,0,0.9928611407415743,0,0.007138859258423303,0,2.311377831611195e-15,0],[0.22458671329618773,0.185844462376646,0,0,0.15139017778414854,0.2825562524203812,0.15562239412263662,0],[0,0.06864090234378073,0,0.10077365119056511,0.1374129705374384,6.273943863605896e-16,1.1140760074060623e-14,0.693172475928204],[0.031129704215363187,0.18578981018498472,0,0,0.1513426271865414,0.10330110461376944,0.2216034943604301,0.30683325943891115],[0,0.0022002880315079767,0,0.8992323487845896,0.09856736318389477,5.110966943270374e-15,2.681112802777004e-15,0]]","[1.9625341748528926,1.5169145114059281,1.9119656630922006,0.06116306098273378,2.280322870927974,1.3588843500111427,2.362303036870217,0.486703132356095]","[6,7,3,2,4,0,6,4,4,5,7,4,6,0,6,7,3,2,0,0,4,6,1,5,7,3,2,1,4,6,5,7,3,2,6,6,6,0,0,0,0,1,5,4,1,5,7,3,2,6,5,4,5,7,3,2,6,7,3,2,1,1,1,5,7,3,2,1,1,1,4,5,7,3,2,6,4,6,6,4]","80","80","16","null","","<div class=""feedback-message""><div class=""feedback-correct"">✓</div></div><div class=""stimulus-container""><div class=""position-wrapper""><div class=""key-label"">A</div><div class=""position-box "" data-position=""0""></div></div><div class=""position-wrapper""><div class=""key-label"">S</div><div class=""position-box "" data-position=""1""></div></div><div class=""position-wrapper""><div class=""key-label"">D</div><div class=""position-box "" data-position=""2""></div></div><div class=""position-wrapper""><div class=""key-label"">F</div><div class=""position-box "" data-position=""3""></div></div><div class=""position-wrapper""><div class=""key-label"">J</div><div class=""position-box "" data-position=""4""></div></div><div class=""position-wrapper""><div class=""key-label"">K</div><div class=""position-box active"" data-position=""5""></div></div><div class=""position-wrapper""><div class=""key-label"">L</div><div class=""position-box "" data-position=""6""></div></div><div class=""position-wrapper""><div class=""key-label"">;</div><div class=""position-box "" data-position=""7""></div></div></div><div class=""finger-diagram-container"">
			<img src=""assets/finger-diagrams/finger-diagram-8pos.png"" alt=""Finger position guide"" class=""finger-diagram"" />
		</div>","null","","","","","","","","","",""
"","","","","","practice","rsi","html-keyboard-response","8","9077","0.0-4.0-1.0","R_m4ommtwk0e","N/A","N/A","8","[[0.36839347962148555,0.18582932025876694,0.007099807624767577,0,0.15137431597034123,0.00004704006797403088,0.2872560364566646,0],[0.0013850875680487965,0.18586284378261636,0,0,0.15139295312519652,0.6140674167743133,0.047291698749824945,0],[0.3745104341474003,0.1858379056676631,0,0,0.1513860127041273,0.00003380252449319531,0.2882318449563162,0],[0,0,0.9928611407415743,0,0.007138859258423303,0,2.311377831611195e-15,0],[0.22458671329618773,0.185844462376646,0,0,0.15139017778414854,0.2825562524203812,0.15562239412263662,0],[0,0.06864090234378073,0,0.10077365119056511,0.1374129705374384,6.273943863605896e-16,1.1140760074060623e-14,0.693172475928204],[0.031129704215363187,0.18578981018498472,0,0,0.1513426271865414,0.10330110461376944,0.2216034943604301,0.30683325943891115],[0,0.0022002880315079767,0,0.8992323487845896,0.09856736318389477,5.110966943270374e-15,2.681112802777004e-15,0]]","[1.9625341748528926,1.5169145114059281,1.9119656630922006,0.06116306098273378,2.280322870927974,1.3588843500111427,2.362303036870217,0.486703132356095]","[6,7,3,2,4,0,6,4,4,5,7,4,6,0,6,7,3,2,0,0,4,6,1,5,7,3,2,1,4,6,5,7,3,2,6,6,6,0,0,0,0,1,5,4,1,5,7,3,2,6,5,4,5,7,3,2,6,7,3,2,1,1,1,5,7,3,2,1,1,1,4,5,7,3,2,6,4,6,6,4]","80","80","16","null","","<div class=""feedback-message""></div><div class=""stimulus-container""><div class=""position-wrapper""><div class=""key-label"">A</div><div class=""position-box "" data-position=""0""></div></div><div class=""position-wrapper""><div class=""key-label"">S</div><div class=""position-box "" data-position=""1""></div></div><div class=""position-wrapper""><div class=""key-label"">D</div><div class=""position-box "" data-position=""2""></div></div><div class=""position-wrapper""><div class=""key-label"">F</div><div class=""position-box "" data-position=""3""></div></div><div class=""position-wrapper""><div class=""key-label"">J</div><div class=""position-box "" data-position=""4""></div></div><div class=""position-wrapper""><div class=""key-label"">K</div><div class=""position-box "" data-position=""5""></div></div><div class=""position-wrapper""><div class=""key-label"">L</div><div class=""position-box "" data-position=""6""></div></div><div class=""position-wrapper""><div class=""key-label"">;</div><div class=""position-box "" data-position=""7""></div></div></div><div class=""finger-diagram-container"">
			<img src=""assets/finger-diagrams/finger-diagram-8pos.png"" alt=""Finger position guide"" class=""finger-diagram"" />
		</div>","null","","","","","","","","","",""
"","","","","","practice","stimulus","html-keyboard-response","9","9548","0.0-5.0-0.0-0.0","R_m4ommtwk0e","N/A","N/A","8","[[0.36839347962148555,0.18582932025876694,0.007099807624767577,0,0.15137431597034123,0.00004704006797403088,0.2872560364566646,0],[0.0013850875680487965,0.18586284378261636,0,0,0.15139295312519652,0.6140674167743133,0.047291698749824945,0],[0.3745104341474003,0.1858379056676631,0,0,0.1513860127041273,0.00003380252449319531,0.2882318449563162,0],[0,0,0.9928611407415743,0,0.007138859258423303,0,2.311377831611195e-15,0],[0.22458671329618773,0.185844462376646,0,0,0.15139017778414854,0.2825562524203812,0.15562239412263662,0],[0,0.06864090234378073,0,0.10077365119056511,0.1374129705374384,6.273943863605896e-16,1.1140760074060623e-14,0.693172475928204],[0.031129704215363187,0.18578981018498472,0,0,0.1513426271865414,0.10330110461376944,0.2216034943604301,0.30683325943891115],[0,0.0022002880315079767,0,0.8992323487845896,0.09856736318389477,5.110966943270374e-15,2.681112802777004e-15,0]]","[1.9625341748528926,1.5169145114059281,1.9119656630922006,0.06116306098273378,2.280322870927974,1.3588843500111427,2.362303036870217,0.486703132356095]","[6,7,3,2,4,0,6,4,4,5,7,4,6,0,6,7,3,2,0,0,4,6,1,5,7,3,2,1,4,6,5,7,3,2,6,6,6,0,0,0,0,1,5,4,1,5,7,3,2,6,5,4,5,7,3,2,6,7,3,2,1,1,1,5,7,3,2,1,1,1,4,5,7,3,2,6,4,6,6,4]","80","80","16","470","","<div class=""feedback-message""></div><div class=""stimulus-container""><div class=""position-wrapper""><div class=""key-label"">A</div><div class=""position-box "" data-position=""0""></div></div><div class=""position-wrapper""><div class=""key-label"">S</div><div class=""position-box active"" data-position=""1""></div></div><div class=""position-wrapper""><div class=""key-label"">D</div><div class=""position-box "" data-position=""2""></div></div><div class=""position-wrapper""><div class=""key-label"">F</div><div class=""position-box "" data-position=""3""></div></div><div class=""position-wrapper""><div class=""key-label"">J</div><div class=""position-box "" data-position=""4""></div></div><div class=""position-wrapper""><div class=""key-label"">K</div><div class=""position-box "" data-position=""5""></div></div><div class=""position-wrapper""><div class=""key-label"">L</div><div class=""position-box "" data-position=""6""></div></div><div class=""position-wrapper""><div class=""key-label"">;</div><div class=""position-box "" data-position=""7""></div></div></div><div class=""finger-diagram-container"">
			<img src=""assets/finger-diagrams/finger-diagram-8pos.png"" alt=""Finger position guide"" class=""finger-diagram"" />
		</div>","s","1","s","1.5169145114059281","3.8647876713437213","true","","","","",""
"","","","","","practice","feedback","html-keyboard-response","10","9750","0.0-5.0-0.0-1.0","R_m4ommtwk0e","N/A","N/A","8","[[0.36839347962148555,0.18582932025876694,0.007099807624767577,0,0.15137431597034123,0.00004704006797403088,0.2872560364566646,0],[0.0013850875680487965,0.18586284378261636,0,0,0.15139295312519652,0.6140674167743133,0.047291698749824945,0],[0.3745104341474003,0.1858379056676631,0,0,0.1513860127041273,0.00003380252449319531,0.2882318449563162,0],[0,0,0.9928611407415743,0,0.007138859258423303,0,2.311377831611195e-15,0],[0.22458671329618773,0.185844462376646,0,0,0.15139017778414854,0.2825562524203812,0.15562239412263662,0],[0,0.06864090234378073,0,0.10077365119056511,0.1374129705374384,6.273943863605896e-16,1.1140760074060623e-14,0.693172475928204],[0.031129704215363187,0.18578981018498472,0,0,0.1513426271865414,0.10330110461376944,0.2216034943604301,0.30683325943891115],[0,0.0022002880315079767,0,0.8992323487845896,0.09856736318389477,5.110966943270374e-15,2.681112802777004e-15,0]]","[1.9625341748528926,1.5169145114059281,1.9119656630922006,0.06116306098273378,2.280322870927974,1.3588843500111427,2.362303036870217,0.486703132356095]","[6,7,3,2,4,0,6,4,4,5,7,4,6,0,6,7,3,2,0,0,4,6,1,5,7,3,2,1,4,6,5,7,3,2,6,6,6,0,0,0,0,1,5,4,1,5,7,3,2,6,5,4,5,7,3,2,6,7,3,2,1,1,1,5,7,3,2,1,1,1,4,5,7,3,2,6,4,6,6,4]","80","80","16","null","","<div class=""feedback-message""><div class=""feedback-correct"">✓</div></div><div class=""stimulus-container""><div class=""position-wrapper""><div class=""key-label"">A</div><div class=""position-box "" data-position=""0""></div></div><div class=""position-wrapper""><div class=""key-label"">S</div><div class=""position-box active"" data-position=""1""></div></div><div class=""position-wrapper""><div class=""key-label"">D</div><div class=""position-box "" data-position=""2""></div></div><div class=""position-wrapper""><div class=""key-label"">F</div><div class=""position-box "" data-position=""3""></div></div><div class=""position-wrapper""><div class=""key-label"">J</div><div class=""position-box "" data-position=""4""></div></div><div class=""position-wrapper""><div class=""key-label"">K</div><div class=""position-box "" data-position=""5""></div></div><div class=""position-wrapper""><div class=""key-label"">L</div><div class=""position-box "" data-position=""6""></div></div><div class=""position-wrapper""><div class=""key-label"">;</div><div class=""position-box "" data-position=""7""></div></div></div><div class=""finger-diagram-container"">
			<img src=""assets/finger-diagrams/finger-diagram-8pos.png"" alt=""Finger position guide"" class=""finger-diagram"" />
		</div>","null","","","","","","","","","",""
"","","","","","practice","rsi","html-keyboard-response","11","9872","0.0-5.0-1.0","R_m4ommtwk0e","N/A","N/A","8","[[0.36839347962148555,0.18582932025876694,0.007099807624767577,0,0.15137431597034123,0.00004704006797403088,0.2872560364566646,0],[0.0013850875680487965,0.18586284378261636,0,0,0.15139295312519652,0.6140674167743133,0.047291698749824945,0],[0.3745104341474003,0.1858379056676631,0,0,0.1513860127041273,0.00003380252449319531,0.2882318449563162,0],[0,0,0.9928611407415743,0,0.007138859258423303,0,2.311377831611195e-15,0],[0.22458671329618773,0.185844462376646,0,0,0.15139017778414854,0.2825562524203812,0.15562239412263662,0],[0,0.06864090234378073,0,0.10077365119056511,0.1374129705374384,6.273943863605896e-16,1.1140760074060623e-14,0.693172475928204],[0.031129704215363187,0.18578981018498472,0,0,0.1513426271865414,0.10330110461376944,0.2216034943604301,0.30683325943891115],[0,0.0022002880315079767,0,0.8992323487845896,0.09856736318389477,5.110966943270374e-15,2.681112802777004e-15,0]]","[1.9625341748528926,1.5169145114059281,1.9119656630922006,0.06116306098273378,2.280322870927974,1.3588843500111427,2.362303036870217,0.486703132356095]","[6,7,3,2,4,0,6,4,4,5,7,4,6,0,6,7,3,2,0,0,4,6,1,5,7,3,2,1,4,6,5,7,3,2,6,6,6,0,0,0,0,1,5,4,1,5,7,3,2,6,5,4,5,7,3,2,6,7,3,2,1,1,1,5,7,3,2,1,1,1,4,5,7,3,2,6,4,6,6,4]","80","80","16","null","","<div class=""feedback-message""></div><div class=""stimulus-container""><div class=""position-wrapper""><div class=""key-label"">A</div><div class=""position-box "" data-position=""0""></div></div><div class=""position-wrapper""><div class=""key-label"">S</div><div class=""position-box "" data-position=""1""></div></div><div class=""position-wrapper""><div class=""key-label"">D</div><div class=""position-box "" data-position=""2""></div></div><div class=""position-wrapper""><div class=""key-label"">F</div><div class=""position-box "" data-position=""3""></div></div><div class=""position-wrapper""><div class=""key-label"">J</div><div class=""position-box "" data-position=""4""></div></div><div class=""position-wrapper""><div class=""key-label"">K</div><div class=""position-box "" data-position=""5""></div></div><div class=""position-wrapper""><div class=""key-label"">L</div><div class=""position-box "" data-position=""6""></div></div><div class=""position-wrapper""><div class=""key-label"">;</div><div class=""position-box "" data-position=""7""></div></div></div><div class=""finger-diagram-container"">
			<img src=""assets/finger-diagrams/finger-diagram-8pos.png"" alt=""Finger position guide"" class=""finger-diagram"" />
		</div>","null","","","","","","","","","",""
"","","","","","practice","stimulus","html-keyboard-response","12","10312","0.0-6.0-0.0-0.0","R_m4ommtwk0e","N/A","N/A","8","[[0.36839347962148555,0.18582932025876694,0.007099807624767577,0,0.15137431597034123,0.00004704006797403088,0.2872560364566646,0],[0.0013850875680487965,0.18586284378261636,0,0,0.15139295312519652,0.6140674167743133,0.047291698749824945,0],[0.3745104341474003,0.1858379056676631,0,0,0.1513860127041273,0.00003380252449319531,0.2882318449563162,0],[0,0,0.9928611407415743,0,0.007138859258423303,0,2.311377831611195e-15,0],[0.22458671329618773,0.185844462376646,0,0,0.15139017778414854,0.2825562524203812,0.15562239412263662,0],[0,0.06864090234378073,0,0.10077365119056511,0.1374129705374384,6.273943863605896e-16,1.1140760074060623e-14,0.693172475928204],[0.031129704215363187,0.18578981018498472,0,0,0.1513426271865414,0.10330110461376944,0.2216034943604301,0.30683325943891115],[0,0.0022002880315079767,0,0.8992323487845896,0.09856736318389477,5.110966943270374e-15,2.681112802777004e-15,0]]","[1.9625341748528926,1.5169145114059281,1.9119656630922006,0.06116306098273378,2.280322870927974,1.3588843500111427,2.362303036870217,0.486703132356095]","[6,7,3,2,4,0,6,4,4,5,7,4,6,0,6,7,3,2,0,0,4,6,1,5,7,3,2,1,4,6,5,7,3,2,6,6,6,0,0,0,0,1,5,4,1,5,7,3,2,6,5,4,5,7,3,2,6,7,3,2,1,1,1,5,7,3,2,1,1,1,4,5,7,3,2,6,4,6,6,4]","80","80","16","440","","<div class=""feedback-message""></div><div class=""stimulus-container""><div class=""position-wrapper""><div class=""key-label"">A</div><div class=""position-box "" data-position=""0""></div></div><div class=""position-wrapper""><div class=""key-label"">S</div><div class=""position-box "" data-position=""1""></div></div><div class=""position-wrapper""><div class=""key-label"">D</div><div class=""position-box "" data-position=""2""></div></div><div class=""position-wrapper""><div class=""key-label"">F</div><div class=""position-box active"" data-position=""3""></div></div><div class=""position-wrapper""><div class=""key-label"">J</div><div class=""position-box "" data-position=""4""></div></div><div class=""position-wrapper""><div class=""key-label"">K</div><div class=""position-box "" data-position=""5""></div></div><div class=""position-wrapper""><div class=""key-label"">L</div><div class=""position-box "" data-position=""6""></div></div><div class=""position-wrapper""><div class=""key-label"">;</div><div class=""position-box "" data-position=""7""></div></div></div><div class=""finger-diagram-container"">
			<img src=""assets/finger-diagrams/finger-diagram-8pos.png"" alt=""Finger position guide"" class=""finger-diagram"" />
		</div>","f","3","f","0.06116306098273378","null","true","","","","",""
"","","","","","practice","feedback","html-keyboard-response","13","10513","0.0-6.0-0.0-1.0","R_m4ommtwk0e","N/A","N/A","8","[[0.36839347962148555,0.18582932025876694,0.007099807624767577,0,0.15137431597034123,0.00004704006797403088,0.2872560364566646,0],[0.0013850875680487965,0.18586284378261636,0,0,0.15139295312519652,0.6140674167743133,0.047291698749824945,0],[0.3745104341474003,0.1858379056676631,0,0,0.1513860127041273,0.00003380252449319531,0.2882318449563162,0],[0,0,0.9928611407415743,0,0.007138859258423303,0,2.311377831611195e-15,0],[0.22458671329618773,0.185844462376646,0,0,0.15139017778414854,0.2825562524203812,0.15562239412263662,0],[0,0.06864090234378073,0,0.10077365119056511,0.1374129705374384,6.273943863605896e-16,1.1140760074060623e-14,0.693172475928204],[0.031129704215363187,0.18578981018498472,0,0,0.1513426271865414,0.10330110461376944,0.2216034943604301,0.30683325943891115],[0,0.0022002880315079767,0,0.8992323487845896,0.09856736318389477,5.110966943270374e-15,2.681112802777004e-15,0]]","[1.9625341748528926,1.5169145114059281,1.9119656630922006,0.06116306098273378,2.280322870927974,1.3588843500111427,2.362303036870217,0.486703132356095]","[6,7,3,2,4,0,6,4,4,5,7,4,6,0,6,7,3,2,0,0,4,6,1,5,7,3,2,1,4,6,5,7,3,2,6,6,6,0,0,0,0,1,5,4,1,5,7,3,2,6,5,4,5,7,3,2,6,7,3,2,1,1,1,5,7,3,2,1,1,1,4,5,7,3,2,6,4,6,6,4]","80","80","16","null","","<div class=""feedback-message""><div class=""feedback-correct"">✓</div></div><div class=""stimulus-container""><div class=""position-wrapper""><div class=""key-label"">A</div><div class=""position-box "" data-position=""0""></div></div><div class=""position-wrapper""><div class=""key-label"">S</div><div class=""position-box "" data-position=""1""></div></div><div class=""position-wrapper""><div class=""key-label"">D</div><div class=""position-box "" data-position=""2""></div></div><div class=""position-wrapper""><div class=""key-label"">F</div><div class=""position-box active"" data-position=""3""></div></div><div class=""position-wrapper""><div class=""key-label"">J</div><div class=""position-box "" data-position=""4""></div></div><div class=""position-wrapper""><div class=""key-label"">K</div><div class=""position-box "" data-position=""5""></div></div><div class=""position-wrapper""><div class=""key-label"">L</div><div class=""position-box "" data-position=""6""></div></div><div class=""position-wrapper""><div class=""key-label"">;</div><div class=""position-box "" data-position=""7""></div></div></div><div class=""finger-diagram-container"">
			<img src=""assets/finger-diagrams/finger-diagram-8pos.png"" alt=""Finger position guide"" class=""finger-diagram"" />
		</div>","null","","","","","","","","","",""
"","","","","","practice","rsi","html-keyboard-response","14","10635","0.0-6.0-1.0","R_m4ommtwk0e","N/A","N/A","8","[[0.36839347962148555,0.18582932025876694,0.007099807624767577,0,0.15137431597034123,0.00004704006797403088,0.2872560364566646,0],[0.0013850875680487965,0.18586284378261636,0,0,0.15139295312519652,0.6140674167743133,0.047291698749824945,0],[0.3745104341474003,0.1858379056676631,0,0,0.1513860127041273,0.00003380252449319531,0.2882318449563162,0],[0,0,0.9928611407415743,0,0.007138859258423303,0,2.311377831611195e-15,0],[0.22458671329618773,0.185844462376646,0,0,0.15139017778414854,0.2825562524203812,0.15562239412263662,0],[0,0.06864090234378073,0,0.10077365119056511,0.1374129705374384,6.273943863605896e-16,1.1140760074060623e-14,0.693172475928204],[0.031129704215363187,0.18578981018498472,0,0,0.1513426271865414,0.10330110461376944,0.2216034943604301,0.30683325943891115],[0,0.0022002880315079767,0,0.8992323487845896,0.09856736318389477,5.110966943270374e-15,2.681112802777004e-15,0]]","[1.9625341748528926,1.5169145114059281,1.9119656630922006,0.06116306098273378,2.280322870927974,1.3588843500111427,2.362303036870217,0.486703132356095]","[6,7,3,2,4,0,6,4,4,5,7,4,6,0,6,7,3,2,0,0,4,6,1,5,7,3,2,1,4,6,5,7,3,2,6,6,6,0,0,0,0,1,5,4,1,5,7,3,2,6,5,4,5,7,3,2,6,7,3,2,1,1,1,5,7,3,2,1,1,1,4,5,7,3,2,6,4,6,6,4]","80","80","16","null","","<div class=""feedback-message""></div><div class=""stimulus-container""><div class=""position-wrapper""><div class=""key-label"">A</div><div class=""position-box "" data-position=""0""></div></div><div class=""position-wrapper""><div class=""key-label"">S</div><div class=""position-box "" data-position=""1""></div></div><div class=""position-wrapper""><div class=""key-label"">D</div><div class=""position-box "" data-position=""2""></div></div><div class=""position-wrapper""><div class=""key-label"">F</div><div class=""position-box "" data-position=""3""></div></div><div class=""position-wrapper""><div class=""key-label"">J</div><div class=""position-box "" data-position=""4""></div></div><div class=""position-wrapper""><div class=""key-label"">K</div><div class=""position-box "" data-position=""5""></div></div><div class=""position-wrapper""><div class=""key-label"">L</div><div class=""position-box "" data-position=""6""></div></div><div class=""position-wrapper""><div class=""key-label"">;</div><div class=""position-box "" data-position=""7""></div></div></div><div class=""finger-diagram-container"">
			<img src=""assets/finger-diagrams/finger-diagram-8pos.png"" alt=""Finger position guide"" class=""finger-diagram"" />
		</div>","null","","","","","","","","","",""
"","","","","","practice","stimulus","html-keyboard-response","15","10983","0.0-7.0-0.0-0.0","R_m4ommtwk0e","N/A","N/A","8","[[0.36839347962148555,0.18582932025876694,0.007099807624767577,0,0.15137431597034123,0.00004704006797403088,0.2872560364566646,0],[0.0013850875680487965,0.18586284378261636,0,0,0.15139295312519652,0.6140674167743133,0.047291698749824945,0],[0.3745104341474003,0.1858379056676631,0,0,0.1513860127041273,0.00003380252449319531,0.2882318449563162,0],[0,0,0.9928611407415743,0,0.007138859258423303,0,2.311377831611195e-15,0],[0.22458671329618773,0.185844462376646,0,0,0.15139017778414854,0.2825562524203812,0.15562239412263662,0],[0,0.06864090234378073,0,0.10077365119056511,0.1374129705374384,6.273943863605896e-16,1.1140760074060623e-14,0.693172475928204],[0.031129704215363187,0.18578981018498472,0,0,0.1513426271865414,0.10330110461376944,0.2216034943604301,0.30683325943891115],[0,0.0022002880315079767,0,0.8992323487845896,0.09856736318389477,5.110966943270374e-15,2.681112802777004e-15,0]]","[1.9625341748528926,1.5169145114059281,1.9119656630922006,0.06116306098273378,2.280322870927974,1.3588843500111427,2.362303036870217,0.486703132356095]","[6,7,3,2,4,0,6,4,4,5,7,4,6,0,6,7,3,2,0,0,4,6,1,5,7,3,2,1,4,6,5,7,3,2,6,6,6,0,0,0,0,1,5,4,1,5,7,3,2,6,5,4,5,7,3,2,6,7,3,2,1,1,1,5,7,3,2,1,1,1,4,5,7,3,2,6,4,6,6,4]","80","80","16","347","","<div class=""feedback-message""></div><div class=""stimulus-container""><div class=""position-wrapper""><div class=""key-label"">A</div><div class=""position-box "" data-position=""0""></div></div><div class=""position-wrapper""><div class=""key-label"">S</div><div class=""position-box "" data-position=""1""></div></div><div class=""position-wrapper""><div class=""key-label"">D</div><div class=""position-box active"" data-position=""2""></div></div><div class=""position-wrapper""><div class=""key-label"">F</div><div class=""position-box "" data-position=""3""></div></div><div class=""position-wrapper""><div class=""key-label"">J</div><div class=""position-box "" data-position=""4""></div></div><div class=""position-wrapper""><div class=""key-label"">K</div><div class=""position-box "" data-position=""5""></div></div><div class=""position-wrapper""><div class=""key-label"">L</div><div class=""position-box "" data-position=""6""></div></div><div class=""position-wrapper""><div class=""key-label"">;</div><div class=""position-box "" data-position=""7""></div></div></div><div class=""finger-diagram-container"">
			<img src=""assets/finger-diagrams/finger-diagram-8pos.png"" alt=""Finger position guide"" class=""finger-diagram"" />
		</div>","a","2","d","1.9119656630922006","0.010336135010665224","false","","","","",""
"","","","","","practice","feedback","html-keyboard-response","16","11187","0.0-7.0-0.0-1.0","R_m4ommtwk0e","N/A","N/A","8","[[0.36839347962148555,0.18582932025876694,0.007099807624767577,0,0.15137431597034123,0.00004704006797403088,0.2872560364566646,0],[0.0013850875680487965,0.18586284378261636,0,0,0.15139295312519652,0.6140674167743133,0.047291698749824945,0],[0.3745104341474003,0.1858379056676631,0,0,0.1513860127041273,0.00003380252449319531,0.2882318449563162,0],[0,0,0.9928611407415743,0,0.007138859258423303,0,2.311377831611195e-15,0],[0.22458671329618773,0.185844462376646,0,0,0.15139017778414854,0.2825562524203812,0.15562239412263662,0],[0,0.06864090234378073,0,0.10077365119056511,0.1374129705374384,6.273943863605896e-16,1.1140760074060623e-14,0.693172475928204],[0.031129704215363187,0.18578981018498472,0,0,0.1513426271865414,0.10330110461376944,0.2216034943604301,0.30683325943891115],[0,0.0022002880315079767,0,0.8992323487845896,0.09856736318389477,5.110966943270374e-15,2.681112802777004e-15,0]]","[1.9625341748528926,1.5169145114059281,1.9119656630922006,0.06116306098273378,2.280322870927974,1.3588843500111427,2.362303036870217,0.486703132356095]","[6,7,3,2,4,0,6,4,4,5,7,4,6,0,6,7,3,2,0,0,4,6,1,5,7,3,2,1,4,6,5,7,3,2,6,6,6,0,0,0,0,1,5,4,1,5,7,3,2,6,5,4,5,7,3,2,6,7,3,2,1,1,1,5,7,3,2,1,1,1,4,5,7,3,2,6,4,6,6,4]","80","80","16","null","","<div class=""feedback-message""><div class=""feedback-error"">✗<br>Try again!</div></div><div class=""stimulus-container""><div class=""position-wrapper""><div class=""key-label"">A</div><div class=""position-box "" data-position=""0""></div></div><div class=""position-wrapper""><div class=""key-label"">S</div><div class=""position-box "" data-position=""1""></div></div><div class=""position-wrapper""><div class=""key-label"">D</div><div class=""position-box active"" data-position=""2""></div></div><div class=""position-wrapper""><div class=""key-label"">F</div><div class=""position-box "" data-position=""3""></div></div><div class=""position-wrapper""><div class=""key-label"">J</div><div class=""position-box "" data-position=""4""></div></div><div class=""position-wrapper""><div class=""key-label"">K</div><div class=""position-box "" data-position=""5""></div></div><div class=""position-wrapper""><div class=""key-label"">L</div><div class=""position-box "" data-position=""6""></div></div><div class=""position-wrapper""><div class=""key-label"">;</div><div class=""position-box "" data-position=""7""></div></div></div><div class=""finger-diagram-container"">
			<img src=""assets/finger-diagrams/finger-diagram-8pos.png"" alt=""Finger position guide"" class=""finger-diagram"" />
		</div>","null","","","","","","","","","",""
"","","","","","practice","retry","html-keyboard-response","17","11354","0.0-7.0-0.1-0.1","R_m4ommtwk0e","N/A","N/A","8","[[0.36839347962148555,0.18582932025876694,0.007099807624767577,0,0.15137431597034123,0.00004704006797403088,0.2872560364566646,0],[0.0013850875680487965,0.18586284378261636,0,0,0.15139295312519652,0.6140674167743133,0.047291698749824945,0],[0.3745104341474003,0.1858379056676631,0,0,0.1513860127041273,0.00003380252449319531,0.2882318449563162,0],[0,0,0.9928611407415743,0,0.007138859258423303,0,2.311377831611195e-15,0],[0.22458671329618773,0.185844462376646,0,0,0.15139017778414854,0.2825562524203812,0.15562239412263662,0],[0,0.06864090234378073,0,0.10077365119056511,0.1374129705374384,6.273943863605896e-16,1.1140760074060623e-14,0.693172475928204],[0.031129704215363187,0.18578981018498472,0,0,0.1513426271865414,0.10330110461376944,0.2216034943604301,0.30683325943891115],[0,0.0022002880315079767,0,0.8992323487845896,0.09856736318389477,5.110966943270374e-15,2.681112802777004e-15,0]]","[1.9625341748528926,1.5169145114059281,1.9119656630922006,0.06116306098273378,2.280322870927974,1.3588843500111427,2.362303036870217,0.486703132356095]","[6,7,3,2,4,0,6,4,4,5,7,4,6,0,6,7,3,2,0,0,4,6,1,5,7,3,2,1,4,6,5,7,3,2,6,6,6,0,0,0,0,1,5,4,1,5,7,3,2,6,5,4,5,7,3,2,6,7,3,2,1,1,1,5,7,3,2,1,1,1,4,5,7,3,2,6,4,6,6,4]","80","80","16","167","","<div class=""feedback-message""></div><div class=""stimulus-container""><div class=""position-wrapper""><div class=""key-label"">A</div><div class=""position-box "" data-position=""0""></div></div><div class=""position-wrapper""><div class=""key-label"">S</div><div class=""position-box "" data-position=""1""></div></div><div class=""position-wrapper""><div class=""key-label"">D</div><div class=""position-box active"" data-position=""2""></div></div><div class=""position-wrapper""><div class=""key-label"">F</div><div class=""position-box "" data-position=""3""></div></div><div class=""position-wrapper""><div class=""key-label"">J</div><div class=""position-box "" data-position=""4""></div></div><div class=""position-wrapper""><div class=""key-label"">K</div><div class=""position-box "" data-position=""5""></div></div><div class=""position-wrapper""><div class=""key-label"">L</div><div class=""position-box "" data-position=""6""></div></div><div class=""position-wrapper""><div class=""key-label"">;</div><div class=""position-box "" data-position=""7""></div></div></div><div class=""finger-diagram-container"">
			<img src=""assets/finger-diagrams/finger-diagram-8pos.png"" alt=""Finger position guide"" class=""finger-diagram"" />
		</div>","d","2","d","1.9119656630922006","0.010336135010665224","true","","","","",""
"","","","","","practice","feedback","html-keyboard-response","18","11556","0.0-7.0-0.1-1.1","R_m4ommtwk0e","N/A","N/A","8","[[0.36839347962148555,0.18582932025876694,0.007099807624767577,0,0.15137431597034123,0.00004704006797403088,0.2872560364566646,0],[0.0013850875680487965,0.18586284378261636,0,0,0.15139295312519652,0.6140674167743133,0.047291698749824945,0],[0.3745104341474003,0.1858379056676631,0,0,0.1513860127041273,0.00003380252449319531,0.2882318449563162,0],[0,0,0.9928611407415743,0,0.007138859258423303,0,2.311377831611195e-15,0],[0.22458671329618773,0.185844462376646,0,0,0.15139017778414854,0.2825562524203812,0.15562239412263662,0],[0,0.06864090234378073,0,0.10077365119056511,0.1374129705374384,6.273943863605896e-16,1.1140760074060623e-14,0.693172475928204],[0.031129704215363187,0.18578981018498472,0,0,0.1513426271865414,0.10330110461376944,0.2216034943604301,0.30683325943891115],[0,0.0022002880315079767,0,0.8992323487845896,0.09856736318389477,5.110966943270374e-15,2.681112802777004e-15,0]]","[1.9625341748528926,1.5169145114059281,1.9119656630922006,0.06116306098273378,2.280322870927974,1.3588843500111427,2.362303036870217,0.486703132356095]","[6,7,3,2,4,0,6,4,4,5,7,4,6,0,6,7,3,2,0,0,4,6,1,5,7,3,2,1,4,6,5,7,3,2,6,6,6,0,0,0,0,1,5,4,1,5,7,3,2,6,5,4,5,7,3,2,6,7,3,2,1,1,1,5,7,3,2,1,1,1,4,5,7,3,2,6,4,6,6,4]","80","80","16","null","","<div class=""feedback-message""><div class=""feedback-correct"">✓</div></div><div class=""stimulus-container""><div class=""position-wrapper""><div class=""key-label"">A</div><div class=""position-box "" data-position=""0""></div></div><div class=""position-wrapper""><div class=""key-label"">S</div><div class=""position-box "" data-position=""1""></div></div><div class=""position-wrapper""><div class=""key-label"">D</div><div class=""position-box active"" data-position=""2""></div></div><div class=""position-wrapper""><div class=""key-label"">F</div><div class=""position-box "" data-position=""3""></div></div><div class=""position-wrapper""><div class=""key-label"">J</div><div class=""position-box "" data-position=""4""></div></div><div class=""position-wrapper""><div class=""key-label"">K</div><div class=""position-box "" data-position=""5""></div></div><div class=""position-wrapper""><div class=""key-label"">L</div><div class=""position-box "" data-position=""6""></div></div><div class=""position-wrapper""><div class=""key-label"">;</div><div class=""position-box "" data-position=""7""></div></div></div><div class=""finger-diagram-container"">
			<img src=""assets/finger-diagrams/finger-diagram-8pos.png"" alt=""Finger position guide"" class=""finger-diagram"" />
		</div>","null","","","","","","","","","",""
"","","","","","practice","rsi","html-keyboard-response","19","11678","0.0-7.0-1.0","R_m4ommtwk0e","N/A","N/A","8","[[0.36839347962148555,0.18582932025876694,0.007099807624767577,0,0.15137431597034123,0.00004704006797403088,0.2872560364566646,0],[0.0013850875680487965,0.18586284378261636,0,0,0.15139295312519652,0.6140674167743133,0.047291698749824945,0],[0.3745104341474003,0.1858379056676631,0,0,0.1513860127041273,0.00003380252449319531,0.2882318449563162,0],[0,0,0.9928611407415743,0,0.007138859258423303,0,2.311377831611195e-15,0],[0.22458671329618773,0.185844462376646,0,0,0.15139017778414854,0.2825562524203812,0.15562239412263662,0],[0,0.06864090234378073,0,0.10077365119056511,0.1374129705374384,6.273943863605896e-16,1.1140760074060623e-14,0.693172475928204],[0.031129704215363187,0.18578981018498472,0,0,0.1513426271865414,0.10330110461376944,0.2216034943604301,0.30683325943891115],[0,0.0022002880315079767,0,0.8992323487845896,0.09856736318389477,5.110966943270374e-15,2.681112802777004e-15,0]]","[1.9625341748528926,1.5169145114059281,1.9119656630922006,0.06116306098273378,2.280322870927974,1.3588843500111427,2.362303036870217,0.486703132356095]","[6,7,3,2,4,0,6,4,4,5,7,4,6,0,6,7,3,2,0,0,4,6,1,5,7,3,2,1,4,6,5,7,3,2,6,6,6,0,0,0,0,1,5,4,1,5,7,3,2,6,5,4,5,7,3,2,6,7,3,2,1,1,1,5,7,3,2,1,1,1,4,5,7,3,2,6,4,6,6,4]","80","80","16","null","","<div class=""feedback-message""></div><div class=""stimulus-container""><div class=""position-wrapper""><div class=""key-label"">A</div><div class=""position-box "" data-position=""0""></div></div><div class=""position-wrapper""><div class=""key-label"">S</div><div class=""position-box "" data-position=""1""></div></div><div class=""position-wrapper""><div class=""key-label"">D</div><div class=""position-box "" data-position=""2""></div></div><div class=""position-wrapper""><div class=""key-label"">F</div><div class=""position-box "" data-position=""3""></div></div><div class=""position-wrapper""><div class=""key-label"">J</div><div class=""position-box "" data-position=""4""></div></div><div class=""position-wrapper""><div class=""key-label"">K</div><div class=""position-box "" data-position=""5""></div></div><div class=""position-wrapper""><div class=""key-label"">L</div><div class=""position-box "" data-position=""6""></div></div><div class=""position-wrapper""><div class=""key-label"">;</div><div class=""position-box "" data-position=""7""></div></div></div><div class=""finger-diagram-container"">
			<img src=""assets/finger-diagrams/finger-diagram-8pos.png"" alt=""Finger position guide"" class=""finger-diagram"" />
		</div>","null","","","","","","","","","",""
"","","","","","practice","stimulus","html-keyboard-response","20","12233","0.0-8.0-0.0-0.0","R_m4ommtwk0e","N/A","N/A","8","[[0.36839347962148555,0.18582932025876694,0.007099807624767577,0,0.15137431597034123,0.00004704006797403088,0.2872560364566646,0],[0.0013850875680487965,0.18586284378261636,0,0,0.15139295312519652,0.6140674167743133,0.047291698749824945,0],[0.3745104341474003,0.1858379056676631,0,0,0.1513860127041273,0.00003380252449319531,0.2882318449563162,0],[0,0,0.9928611407415743,0,0.007138859258423303,0,2.311377831611195e-15,0],[0.22458671329618773,0.185844462376646,0,0,0.15139017778414854,0.2825562524203812,0.15562239412263662,0],[0,0.06864090234378073,0,0.10077365119056511,0.1374129705374384,6.273943863605896e-16,1.1140760074060623e-14,0.693172475928204],[0.031129704215363187,0.18578981018498472,0,0,0.1513426271865414,0.10330110461376944,0.2216034943604301,0.30683325943891115],[0,0.0022002880315079767,0,0.8992323487845896,0.09856736318389477,5.110966943270374e-15,2.681112802777004e-15,0]]","[1.9625341748528926,1.5169145114059281,1.9119656630922006,0.06116306098273378,2.280322870927974,1.3588843500111427,2.362303036870217,0.486703132356095]","[6,7,3,2,4,0,6,4,4,5,7,4,6,0,6,7,3,2,0,0,4,6,1,5,7,3,2,1,4,6,5,7,3,2,6,6,6,0,0,0,0,1,5,4,1,5,7,3,2,6,5,4,5,7,3,2,6,7,3,2,1,1,1,5,7,3,2,1,1,1,4,5,7,3,2,6,4,6,6,4]","80","80","16","555","","<div class=""feedback-message""></div><div class=""stimulus-container""><div class=""position-wrapper""><div class=""key-label"">A</div><div class=""position-box "" data-position=""0""></div></div><div class=""position-wrapper""><div class=""key-label"">S</div><div class=""position-box "" data-position=""1""></div></div><div class=""position-wrapper""><div class=""key-label"">D</div><div class=""position-box "" data-position=""2""></div></div><div class=""position-wrapper""><div class=""key-label"">F</div><div class=""position-box "" data-position=""3""></div></div><div class=""position-wrapper""><div class=""key-label"">J</div><div class=""position-box "" data-position=""4""></div></div><div class=""position-wrapper""><div class=""key-label"">K</div><div class=""position-box "" data-position=""5""></div></div><div class=""position-wrapper""><div class=""key-label"">L</div><div class=""position-box active"" data-position=""6""></div></div><div class=""position-wrapper""><div class=""key-label"">;</div><div class=""position-box "" data-position=""7""></div></div></div><div class=""finger-diagram-container"">
			<img src=""assets/finger-diagrams/finger-diagram-8pos.png"" alt=""Finger position guide"" class=""finger-diagram"" />
		</div>","k","6","l","2.362303036870217","1.7946983561043814","false","","","","",""
"","","","","","practice","feedback","html-keyboard-response","21","12437","0.0-8.0-0.0-1.0","R_m4ommtwk0e","N/A","N/A","8","[[0.36839347962148555,0.18582932025876694,0.007099807624767577,0,0.15137431597034123,0.00004704006797403088,0.2872560364566646,0],[0.0013850875680487965,0.18586284378261636,0,0,0.15139295312519652,0.6140674167743133,0.047291698749824945,0],[0.3745104341474003,0.1858379056676631,0,0,0.1513860127041273,0.00003380252449319531,0.2882318449563162,0],[0,0,0.9928611407415743,0,0.007138859258423303,0,2.311377831611195e-15,0],[0.22458671329618773,0.185844462376646,0,0,0.15139017778414854,0.2825562524203812,0.15562239412263662,0],[0,0.06864090234378073,0,0.10077365119056511,0.1374129705374384,6.273943863605896e-16,1.1140760074060623e-14,0.693172475928204],[0.031129704215363187,0.18578981018498472,0,0,0.1513426271865414,0.10330110461376944,0.2216034943604301,0.30683325943891115],[0,0.0022002880315079767,0,0.8992323487845896,0.09856736318389477,5.110966943270374e-15,2.681112802777004e-15,0]]","[1.9625341748528926,1.5169145114059281,1.9119656630922006,0.06116306098273378,2.280322870927974,1.3588843500111427,2.362303036870217,0.486703132356095]","[6,7,3,2,4,0,6,4,4,5,7,4,6,0,6,7,3,2,0,0,4,6,1,5,7,3,2,1,4,6,5,7,3,2,6,6,6,0,0,0,0,1,5,4,1,5,7,3,2,6,5,4,5,7,3,2,6,7,3,2,1,1,1,5,7,3,2,1,1,1,4,5,7,3,2,6,4,6,6,4]","80","80","16","null","","<div class=""feedback-message""><div class=""feedback-error"">✗<br>Try again!</div></div><div class=""stimulus-container""><div class=""position-wrapper""><div class=""key-label"">A</div><div class=""position-box "" data-position=""0""></div></div><div class=""position-wrapper""><div class=""key-label"">S</div><div class=""position-box "" data-position=""1""></div></div><div class=""position-wrapper""><div class=""key-label"">D</div><div class=""position-box "" data-position=""2""></div></div><div class=""position-wrapper""><div class=""key-label"">F</div><div class=""position-box "" data-position=""3""></div></div><div class=""position-wrapper""><div class=""key-label"">J</div><div class=""position-box "" data-position=""4""></div></div><div class=""position-wrapper""><div class=""key-label"">K</div><div class=""position-box "" data-position=""5""></div></div><div class=""position-wrapper""><div class=""key-label"">L</div><div class=""position-box active"" data-position=""6""></div></div><div class=""position-wrapper""><div class=""key-label"">;</div><div class=""position-box "" data-position=""7""></div></div></div><div class=""finger-diagram-container"">
			<img src=""assets/finger-diagrams/finger-diagram-8pos.png"" alt=""Finger position guide"" class=""finger-diagram"" />
		</div>","null","","","","","","","","","",""
"","","","","","practice","retry","html-keyboard-response","22","12535","0.0-8.0-0.1-0.1","R_m4ommtwk0e","N/A","N/A","8","[[0.36839347962148555,0.18582932025876694,0.007099807624767577,0,0.15137431597034123,0.00004704006797403088,0.2872560364566646,0],[0.0013850875680487965,0.18586284378261636,0,0,0.15139295312519652,0.6140674167743133,0.047291698749824945,0],[0.3745104341474003,0.1858379056676631,0,0,0.1513860127041273,0.00003380252449319531,0.2882318449563162,0],[0,0,0.9928611407415743,0,0.007138859258423303,0,2.311377831611195e-15,0],[0.22458671329618773,0.185844462376646,0,0,0.15139017778414854,0.2825562524203812,0.15562239412263662,0],[0,0.06864090234378073,0,0.10077365119056511,0.1374129705374384,6.273943863605896e-16,1.1140760074060623e-14,0.693172475928204],[0.031129704215363187,0.18578981018498472,0,0,0.1513426271865414,0.10330110461376944,0.2216034943604301,0.30683325943891115],[0,0.0022002880315079767,0,0.8992323487845896,0.09856736318389477,5.110966943270374e-15,2.681112802777004e-15,0]]","[1.9625341748528926,1.5169145114059281,1.9119656630922006,0.06116306098273378,2.280322870927974,1.3588843500111427,2.362303036870217,0.486703132356095]","[6,7,3,2,4,0,6,4,4,5,7,4,6,0,6,7,3,2,0,0,4,6,1,5,7,3,2,1,4,6,5,7,3,2,6,6,6,0,0,0,0,1,5,4,1,5,7,3,2,6,5,4,5,7,3,2,6,7,3,2,1,1,1,5,7,3,2,1,1,1,4,5,7,3,2,6,4,6,6,4]","80","80","16","97","","<div class=""feedback-message""></div><div class=""stimulus-container""><div class=""position-wrapper""><div class=""key-label"">A</div><div class=""position-box "" data-position=""0""></div></div><div class=""position-wrapper""><div class=""key-label"">S</div><div class=""position-box "" data-position=""1""></div></div><div class=""position-wrapper""><div class=""key-label"">D</div><div class=""position-box "" data-position=""2""></div></div><div class=""position-wrapper""><div class=""key-label"">F</div><div class=""position-box "" data-position=""3""></div></div><div class=""position-wrapper""><div class=""key-label"">J</div><div class=""position-box "" data-position=""4""></div></div><div class=""position-wrapper""><div class=""key-label"">K</div><div class=""position-box "" data-position=""5""></div></div><div class=""position-wrapper""><div class=""key-label"">L</div><div class=""position-box active"" data-position=""6""></div></div><div class=""position-wrapper""><div class=""key-label"">;</div><div class=""position-box "" data-position=""7""></div></div></div><div class=""finger-diagram-container"">
			<img src=""assets/finger-diagrams/finger-diagram-8pos.png"" alt=""Finger position guide"" class=""finger-diagram"" />
		</div>","l","6","l","2.362303036870217","1.7946983561043814","true","","","","",""
"","","","","","practice","feedback","html-keyboard-response","23","12736","0.0-8.0-0.1-1.1","R_m4ommtwk0e","N/A","N/A","8","[[0.36839347962148555,0.18582932025876694,0.007099807624767577,0,0.15137431597034123,0.00004704006797403088,0.2872560364566646,0],[0.0013850875680487965,0.18586284378261636,0,0,0.15139295312519652,0.6140674167743133,0.047291698749824945,0],[0.3745104341474003,0.1858379056676631,0,0,0.1513860127041273,0.00003380252449319531,0.2882318449563162,0],[0,0,0.9928611407415743,0,0.007138859258423303,0,2.311377831611195e-15,0],[0.22458671329618773,0.185844462376646,0,0,0.15139017778414854,0.2825562524203812,0.15562239412263662,0],[0,0.06864090234378073,0,0.10077365119056511,0.1374129705374384,6.273943863605896e-16,1.1140760074060623e-14,0.693172475928204],[0.031129704215363187,0.18578981018498472,0,0,0.1513426271865414,0.10330110461376944,0.2216034943604301,0.30683325943891115],[0,0.0022002880315079767,0,0.8992323487845896,0.09856736318389477,5.110966943270374e-15,2.681112802777004e-15,0]]","[1.9625341748528926,1.5169145114059281,1.9119656630922006,0.06116306098273378,2.280322870927974,1.3588843500111427,2.362303036870217,0.486703132356095]","[6,7,3,2,4,0,6,4,4,5,7,4,6,0,6,7,3,2,0,0,4,6,1,5,7,3,2,1,4,6,5,7,3,2,6,6,6,0,0,0,0,1,5,4,1,5,7,3,2,6,5,4,5,7,3,2,6,7,3,2,1,1,1,5,7,3,2,1,1,1,4,5,7,3,2,6,4,6,6,4]","80","80","16","null","","<div class=""feedback-message""><div class=""feedback-correct"">✓</div></div><div class=""stimulus-container""><div class=""position-wrapper""><div class=""key-label"">A</div><div class=""position-box "" data-position=""0""></div></div><div class=""position-wrapper""><div class=""key-label"">S</div><div class=""position-box "" data-position=""1""></div></div><div class=""position-wrapper""><div class=""key-label"">D</div><div class=""position-box "" data-position=""2""></div></div><div class=""position-wrapper""><div class=""key-label"">F</div><div class=""position-box "" data-position=""3""></div></div><div class=""position-wrapper""><div class=""key-label"">J</div><div class=""position-box "" data-position=""4""></div></div><div class=""position-wrapper""><div class=""key-label"">K</div><div class=""position-box "" data-position=""5""></div></div><div class=""position-wrapper""><div class=""key-label"">L</div><div class=""position-box active"" data-position=""6""></div></div><div class=""position-wrapper""><div class=""key-label"">;</div><div class=""position-box "" data-position=""7""></div></div></div><div class=""finger-diagram-container"">
			<img src=""assets/finger-diagrams/finger-diagram-8pos.png"" alt=""Finger position guide"" class=""finger-diagram"" />
		</div>","null","","","","","","","","","",""
"","","","","","practice","rsi","html-keyboard-response","24","12858","0.0-8.0-1.0","R_m4ommtwk0e","N/A","N/A","8","[[0.36839347962148555,0.18582932025876694,0.007099807624767577,0,0.15137431597034123,0.00004704006797403088,0.2872560364566646,0],[0.0013850875680487965,0.18586284378261636,0,0,0.15139295312519652,0.6140674167743133,0.047291698749824945,0],[0.3745104341474003,0.1858379056676631,0,0,0.1513860127041273,0.00003380252449319531,0.2882318449563162,0],[0,0,0.9928611407415743,0,0.007138859258423303,0,2.311377831611195e-15,0],[0.22458671329618773,0.185844462376646,0,0,0.15139017778414854,0.2825562524203812,0.15562239412263662,0],[0,0.06864090234378073,0,0.10077365119056511,0.1374129705374384,6.273943863605896e-16,1.1140760074060623e-14,0.693172475928204],[0.031129704215363187,0.18578981018498472,0,0,0.1513426271865414,0.10330110461376944,0.2216034943604301,0.30683325943891115],[0,0.0022002880315079767,0,0.8992323487845896,0.09856736318389477,5.110966943270374e-15,2.681112802777004e-15,0]]","[1.9625341748528926,1.5169145114059281,1.9119656630922006,0.06116306098273378,2.280322870927974,1.3588843500111427,2.362303036870217,0.486703132356095]","[6,7,3,2,4,0,6,4,4,5,7,4,6,0,6,7,3,2,0,0,4,6,1,5,7,3,2,1,4,6,5,7,3,2,6,6,6,0,0,0,0,1,5,4,1,5,7,3,2,6,5,4,5,7,3,2,6,7,3,2,1,1,1,5,7,3,2,1,1,1,4,5,7,3,2,6,4,6,6,4]","80","80","16","null","","<div class=""feedback-message""></div><div class=""stimulus-container""><div class=""position-wrapper""><div class=""key-label"">A</div><div class=""position-box "" data-position=""0""></div></div><div class=""position-wrapper""><div class=""key-label"">S</div><div class=""position-box "" data-position=""1""></div></div><div class=""position-wrapper""><div class=""key-label"">D</div><div class=""position-box "" data-position=""2""></div></div><div class=""position-wrapper""><div class=""key-label"">F</div><div class=""position-box "" data-position=""3""></div></div><div class=""position-wrapper""><div class=""key-label"">J</div><div class=""position-box "" data-position=""4""></div></div><div class=""position-wrapper""><div class=""key-label"">K</div><div class=""position-box "" data-position=""5""></div></div><div class=""position-wrapper""><div class=""key-label"">L</div><div class=""position-box "" data-position=""6""></div></div><div class=""position-wrapper""><div class=""key-label"">;</div><div class=""position-box "" data-position=""7""></div></div></div><div class=""finger-diagram-container"">
			<img src=""assets/finger-diagrams/finger-diagram-8pos.png"" alt=""Finger position guide"" class=""finger-diagram"" />
		</div>","null","","","","","","","","","",""
"","","","","","practice","stimulus","html-keyboard-response","25","13313","0.0-9.0-0.0-0.0","R_m4ommtwk0e","N/A","N/A","8","[[0.36839347962148555,0.18582932025876694,0.007099807624767577,0,0.15137431597034123,0.00004704006797403088,0.2872560364566646,0],[0.0013850875680487965,0.18586284378261636,0,0,0.15139295312519652,0.6140674167743133,0.047291698749824945,0],[0.3745104341474003,0.1858379056676631,0,0,0.1513860127041273,0.00003380252449319531,0.2882318449563162,0],[0,0,0.9928611407415743,0,0.007138859258423303,0,2.311377831611195e-15,0],[0.22458671329618773,0.185844462376646,0,0,0.15139017778414854,0.2825562524203812,0.15562239412263662,0],[0,0.06864090234378073,0,0.10077365119056511,0.1374129705374384,6.273943863605896e-16,1.1140760074060623e-14,0.693172475928204],[0.031129704215363187,0.18578981018498472,0,0,0.1513426271865414,0.10330110461376944,0.2216034943604301,0.30683325943891115],[0,0.0022002880315079767,0,0.8992323487845896,0.09856736318389477,5.110966943270374e-15,2.681112802777004e-15,0]]","[1.9625341748528926,1.5169145114059281,1.9119656630922006,0.06116306098273378,2.280322870927974,1.3588843500111427,2.362303036870217,0.486703132356095]","[6,7,3,2,4,0,6,4,4,5,7,4,6,0,6,7,3,2,0,0,4,6,1,5,7,3,2,1,4,6,5,7,3,2,6,6,6,0,0,0,0,1,5,4,1,5,7,3,2,6,5,4,5,7,3,2,6,7,3,2,1,1,1,5,7,3,2,1,1,1,4,5,7,3,2,6,4,6,6,4]","80","80","16","454","","<div class=""feedback-message""></div><div class=""stimulus-container""><div class=""position-wrapper""><div class=""key-label"">A</div><div class=""position-box active"" data-position=""0""></div></div><div class=""position-wrapper""><div class=""key-label"">S</div><div class=""position-box "" data-position=""1""></div></div><div class=""position-wrapper""><div class=""key-label"">D</div><div class=""position-box "" data-position=""2""></div></div><div class=""position-wrapper""><div class=""key-label"">F</div><div class=""position-box "" data-position=""3""></div></div><div class=""position-wrapper""><div class=""key-label"">J</div><div class=""position-box "" data-position=""4""></div></div><div class=""position-wrapper""><div class=""key-label"">K</div><div class=""position-box "" data-position=""5""></div></div><div class=""position-wrapper""><div class=""key-label"">L</div><div class=""position-box "" data-position=""6""></div></div><div class=""position-wrapper""><div class=""key-label"">;</div><div class=""position-box "" data-position=""7""></div></div></div><div class=""finger-diagram-container"">
			<img src=""assets/finger-diagrams/finger-diagram-8pos.png"" alt=""Finger position guide"" class=""finger-diagram"" />
		</div>","a","0","a","1.9625341748528926","5.005564320936023","true","","","","",""
"","","","","","practice","feedback","html-keyboard-response","26","13515","0.0-9.0-0.0-1.0","R_m4ommtwk0e","N/A","N/A","8","[[0.36839347962148555,0.18582932025876694,0.007099807624767577,0,0.15137431597034123,0.00004704006797403088,0.2872560364566646,0],[0.0013850875680487965,0.18586284378261636,0,0,0.15139295312519652,0.6140674167743133,0.047291698749824945,0],[0.3745104341474003,0.1858379056676631,0,0,0.1513860127041273,0.00003380252449319531,0.2882318449563162,0],[0,0,0.9928611407415743,0,0.007138859258423303,0,2.311377831611195e-15,0],[0.22458671329618773,0.185844462376646,0,0,0.15139017778414854,0.2825562524203812,0.15562239412263662,0],[0,0.06864090234378073,0,0.10077365119056511,0.1374129705374384,6.273943863605896e-16,1.1140760074060623e-14,0.693172475928204],[0.031129704215363187,0.18578981018498472,0,0,0.1513426271865414,0.10330110461376944,0.2216034943604301,0.30683325943891115],[0,0.0022002880315079767,0,0.8992323487845896,0.09856736318389477,5.110966943270374e-15,2.681112802777004e-15,0]]","[1.9625341748528926,1.5169145114059281,1.9119656630922006,0.06116306098273378,2.280322870927974,1.3588843500111427,2.362303036870217,0.486703132356095]","[6,7,3,2,4,0,6,4,4,5,7,4,6,0,6,7,3,2,0,0,4,6,1,5,7,3,2,1,4,6,5,7,3,2,6,6,6,0,0,0,0,1,5,4,1,5,7,3,2,6,5,4,5,7,3,2,6,7,3,2,1,1,1,5,7,3,2,1,1,1,4,5,7,3,2,6,4,6,6,4]","80","80","16","null","","<div class=""feedback-message""><div class=""feedback-correct"">✓</div></div><div class=""stimulus-container""><div class=""position-wrapper""><div class=""key-label"">A</div><div class=""position-box active"" data-position=""0""></div></div><div class=""position-wrapper""><div class=""key-label"">S</div><div class=""position-box "" data-position=""1""></div></div><div class=""position-wrapper""><div class=""key-label"">D</div><div class=""position-box "" data-position=""2""></div></div><div class=""position-wrapper""><div class=""key-label"">F</div><div class=""position-box "" data-position=""3""></div></div><div class=""position-wrapper""><div class=""key-label"">J</div><div class=""position-box "" data-position=""4""></div></div><div class=""position-wrapper""><div class=""key-label"">K</div><div class=""position-box "" data-position=""5""></div></div><div class=""position-wrapper""><div class=""key-label"">L</div><div class=""position-box "" data-position=""6""></div></div><div class=""position-wrapper""><div class=""key-label"">;</div><div class=""position-box "" data-position=""7""></div></div></div><div class=""finger-diagram-container"">
			<img src=""assets/finger-diagrams/finger-diagram-8pos.png"" alt=""Finger position guide"" class=""finger-diagram"" />
		</div>","null","","","","","","","","","",""
"","","","","","practice","rsi","html-keyboard-response","27","13637","0.0-9.0-1.0","R_m4ommtwk0e","N/A","N/A","8","[[0.36839347962148555,0.18582932025876694,0.007099807624767577,0,0.15137431597034123,0.00004704006797403088,0.2872560364566646,0],[0.0013850875680487965,0.18586284378261636,0,0,0.15139295312519652,0.6140674167743133,0.047291698749824945,0],[0.3745104341474003,0.1858379056676631,0,0,0.1513860127041273,0.00003380252449319531,0.2882318449563162,0],[0,0,0.9928611407415743,0,0.007138859258423303,0,2.311377831611195e-15,0],[0.22458671329618773,0.185844462376646,0,0,0.15139017778414854,0.2825562524203812,0.15562239412263662,0],[0,0.06864090234378073,0,0.10077365119056511,0.1374129705374384,6.273943863605896e-16,1.1140760074060623e-14,0.693172475928204],[0.031129704215363187,0.18578981018498472,0,0,0.1513426271865414,0.10330110461376944,0.2216034943604301,0.30683325943891115],[0,0.0022002880315079767,0,0.8992323487845896,0.09856736318389477,5.110966943270374e-15,2.681112802777004e-15,0]]","[1.9625341748528926,1.5169145114059281,1.9119656630922006,0.06116306098273378,2.280322870927974,1.3588843500111427,2.362303036870217,0.486703132356095]","[6,7,3,2,4,0,6,4,4,5,7,4,6,0,6,7,3,2,0,0,4,6,1,5,7,3,2,1,4,6,5,7,3,2,6,6,6,0,0,0,0,1,5,4,1,5,7,3,2,6,5,4,5,7,3,2,6,7,3,2,1,1,1,5,7,3,2,1,1,1,4,5,7,3,2,6,4,6,6,4]","80","80","16","null","","<div class=""feedback-message""></div><div class=""stimulus-container""><div class=""position-wrapper""><div class=""key-label"">A</div><div class=""position-box "" data-position=""0""></div></div><div class=""position-wrapper""><div class=""key-label"">S</div><div class=""position-box "" data-position=""1""></div></div><div class=""position-wrapper""><div class=""key-label"">D</div><div class=""position-box "" data-position=""2""></div></div><div class=""position-wrapper""><div class=""key-label"">F</div><div class=""position-box "" data-position=""3""></div></div><div class=""position-wrapper""><div class=""key-label"">J</div><div class=""position-box "" data-position=""4""></div></div><div class=""position-wrapper""><div class=""key-label"">K</div><div class=""position-box "" data-position=""5""></div></div><div class=""position-wrapper""><div class=""key-label"">L</div><div class=""position-box "" data-position=""6""></div></div><div class=""position-wrapper""><div class=""key-label"">;</div><div class=""position-box "" data-position=""7""></div></div></div><div class=""finger-diagram-container"">
			<img src=""assets/finger-diagrams/finger-diagram-8pos.png"" alt=""Finger position guide"" class=""finger-diagram"" />
		</div>","null","","","","","","","","","",""
"","","","","","practice","stimulus","html-keyboard-response","28","14107","0.0-10.0-0.0-0.0","R_m4ommtwk0e","N/A","N/A","8","[[0.36839347962148555,0.18582932025876694,0.007099807624767577,0,0.15137431597034123,0.00004704006797403088,0.2872560364566646,0],[0.0013850875680487965,0.18586284378261636,0,0,0.15139295312519652,0.6140674167743133,0.047291698749824945,0],[0.3745104341474003,0.1858379056676631,0,0,0.1513860127041273,0.00003380252449319531,0.2882318449563162,0],[0,0,0.9928611407415743,0,0.007138859258423303,0,2.311377831611195e-15,0],[0.22458671329618773,0.185844462376646,0,0,0.15139017778414854,0.2825562524203812,0.15562239412263662,0],[0,0.06864090234378073,0,0.10077365119056511,0.1374129705374384,6.273943863605896e-16,1.1140760074060623e-14,0.693172475928204],[0.031129704215363187,0.18578981018498472,0,0,0.1513426271865414,0.10330110461376944,0.2216034943604301,0.30683325943891115],[0,0.0022002880315079767,0,0.8992323487845896,0.09856736318389477,5.110966943270374e-15,2.681112802777004e-15,0]]","[1.9625341748528926,1.5169145114059281,1.9119656630922006,0.06116306098273378,2.280322870927974,1.3588843500111427,2.362303036870217,0.486703132356095]","[6,7,3,2,4,0,6,4,4,5,7,4,6,0,6,7,3,2,0,0,4,6,1,5,7,3,2,1,4,6,5,7,3,2,6,6,6,0,0,0,0,1,5,4,1,5,7,3,2,6,5,4,5,7,3,2,6,7,3,2,1,1,1,5,7,3,2,1,1,1,4,5,7,3,2,6,4,6,6,4]","80","80","16","468","","<div class=""feedback-message""></div><div class=""stimulus-container""><div class=""position-wrapper""><div class=""key-label"">A</div><div class=""position-box "" data-position=""0""></div></div><div class=""position-wrapper""><div class=""key-label"">S</div><div class=""position-box "" data-position=""1""></div></div><div class=""position-wrapper""><div class=""key-label"">D</div><div class=""position-box "" data-position=""2""></div></div><div class=""position-wrapper""><div class=""key-label"">F</div><div class=""position-box "" data-position=""3""></div></div><div class=""position-wrapper""><div class=""key-label"">J</div><div class=""position-box active"" data-position=""4""></div></div><div class=""position-wrapper""><div class=""key-label"">K</div><div class=""position-box "" data-position=""5""></div></div><div class=""position-wrapper""><div class=""key-label"">L</div><div class=""position-box "" data-position=""6""></div></div><div class=""position-wrapper""><div class=""key-label"">;</div><div class=""position-box "" data-position=""7""></div></div></div><div class=""finger-diagram-container"">
			<img src=""assets/finger-diagrams/finger-diagram-8pos.png"" alt=""Finger position guide"" class=""finger-diagram"" />
		</div>","j","4","j","2.280322870927974","2.723807654197659","true","","","","",""
"","","","","","practice","feedback","html-keyboard-response","29","14309","0.0-10.0-0.0-1.0","R_m4ommtwk0e","N/A","N/A","8","[[0.36839347962148555,0.18582932025876694,0.007099807624767577,0,0.15137431597034123,0.00004704006797403088,0.2872560364566646,0],[0.0013850875680487965,0.18586284378261636,0,0,0.15139295312519652,0.6140674167743133,0.047291698749824945,0],[0.3745104341474003,0.1858379056676631,0,0,0.1513860127041273,0.00003380252449319531,0.2882318449563162,0],[0,0,0.9928611407415743,0,0.007138859258423303,0,2.311377831611195e-15,0],[0.22458671329618773,0.185844462376646,0,0,0.15139017778414854,0.2825562524203812,0.15562239412263662,0],[0,0.06864090234378073,0,0.10077365119056511,0.1374129705374384,6.273943863605896e-16,1.1140760074060623e-14,0.693172475928204],[0.031129704215363187,0.18578981018498472,0,0,0.1513426271865414,0.10330110461376944,0.2216034943604301,0.30683325943891115],[0,0.0022002880315079767,0,0.8992323487845896,0.09856736318389477,5.110966943270374e-15,2.681112802777004e-15,0]]","[1.9625341748528926,1.5169145114059281,1.9119656630922006,0.06116306098273378,2.280322870927974,1.3588843500111427,2.362303036870217,0.486703132356095]","[6,7,3,2,4,0,6,4,4,5,7,4,6,0,6,7,3,2,0,0,4,6,1,5,7,3,2,1,4,6,5,7,3,2,6,6,6,0,0,0,0,1,5,4,1,5,7,3,2,6,5,4,5,7,3,2,6,7,3,2,1,1,1,5,7,3,2,1,1,1,4,5,7,3,2,6,4,6,6,4]","80","80","16","null","","<div class=""feedback-message""><div class=""feedback-correct"">✓</div></div><div class=""stimulus-container""><div class=""position-wrapper""><div class=""key-label"">A</div><div class=""position-box "" data-position=""0""></div></div><div class=""position-wrapper""><div class=""key-label"">S</div><div class=""position-box "" data-position=""1""></div></div><div class=""position-wrapper""><div class=""key-label"">D</div><div class=""position-box "" data-position=""2""></div></div><div class=""position-wrapper""><div class=""key-label"">F</div><div class=""position-box "" data-position=""3""></div></div><div class=""position-wrapper""><div class=""key-label"">J</div><div class=""position-box active"" data-position=""4""></div></div><div class=""position-wrapper""><div class=""key-label"">K</div><div class=""position-box "" data-position=""5""></div></div><div class=""position-wrapper""><div class=""key-label"">L</div><div class=""position-box "" data-position=""6""></div></div><div class=""position-wrapper""><div class=""key-label"">;</div><div class=""position-box "" data-position=""7""></div></div></div><div class=""finger-diagram-container"">
			<img src=""assets/finger-diagrams/finger-diagram-8pos.png"" alt=""Finger position guide"" class=""finger-diagram"" />
		</div>","null","","","","","","","","","",""
"","","","","","practice","rsi","html-keyboard-response","30","14431","0.0-10.0-1.0","R_m4ommtwk0e","N/A","N/A","8","[[0.36839347962148555,0.18582932025876694,0.007099807624767577,0,0.15137431597034123,0.00004704006797403088,0.2872560364566646,0],[0.0013850875680487965,0.18586284378261636,0,0,0.15139295312519652,0.6140674167743133,0.047291698749824945,0],[0.3745104341474003,0.1858379056676631,0,0,0.1513860127041273,0.00003380252449319531,0.2882318449563162,0],[0,0,0.9928611407415743,0,0.007138859258423303,0,2.311377831611195e-15,0],[0.22458671329618773,0.185844462376646,0,0,0.15139017778414854,0.2825562524203812,0.15562239412263662,0],[0,0.06864090234378073,0,0.10077365119056511,0.1374129705374384,6.273943863605896e-16,1.1140760074060623e-14,0.693172475928204],[0.031129704215363187,0.18578981018498472,0,0,0.1513426271865414,0.10330110461376944,0.2216034943604301,0.30683325943891115],[0,0.0022002880315079767,0,0.8992323487845896,0.09856736318389477,5.110966943270374e-15,2.681112802777004e-15,0]]","[1.9625341748528926,1.5169145114059281,1.9119656630922006,0.06116306098273378,2.280322870927974,1.3588843500111427,2.362303036870217,0.486703132356095]","[6,7,3,2,4,0,6,4,4,5,7,4,6,0,6,7,3,2,0,0,4,6,1,5,7,3,2,1,4,6,5,7,3,2,6,6,6,0,0,0,0,1,5,4,1,5,7,3,2,6,5,4,5,7,3,2,6,7,3,2,1,1,1,5,7,3,2,1,1,1,4,5,7,3,2,6,4,6,6,4]","80","80","16","null","","<div class=""feedback-message""></div><div class=""stimulus-container""><div class=""position-wrapper""><div class=""key-label"">A</div><div class=""position-box "" data-position=""0""></div></div><div class=""position-wrapper""><div class=""key-label"">S</div><div class=""position-box "" data-position=""1""></div></div><div class=""position-wrapper""><div class=""key-label"">D</div><div class=""position-box "" data-position=""2""></div></div><div class=""position-wrapper""><div class=""key-label"">F</div><div class=""position-box "" data-position=""3""></div></div><div class=""position-wrapper""><div class=""key-label"">J</div><div class=""position-box "" data-position=""4""></div></div><div class=""position-wrapper""><div class=""key-label"">K</div><div class=""position-box "" data-position=""5""></div></div><div class=""position-wrapper""><div class=""key-label"">L</div><div class=""position-box "" data-position=""6""></div></div><div class=""position-wrapper""><div class=""key-label"">;</div><div class=""position-box "" data-position=""7""></div></div></div><div class=""finger-diagram-container"">
			<img src=""assets/finger-diagrams/finger-diagram-8pos.png"" alt=""Finger position guide"" class=""finger-diagram"" />
		</div>","null","","","","","","","","","",""
"","","","","","practice","stimulus","html-keyboard-response","31","14859","0.0-11.0-0.0-0.0","R_m4ommtwk0e","N/A","N/A","8","[[0.36839347962148555,0.18582932025876694,0.007099807624767577,0,0.15137431597034123,0.00004704006797403088,0.2872560364566646,0],[0.0013850875680487965,0.18586284378261636,0,0,0.15139295312519652,0.6140674167743133,0.047291698749824945,0],[0.3745104341474003,0.1858379056676631,0,0,0.1513860127041273,0.00003380252449319531,0.2882318449563162,0],[0,0,0.9928611407415743,0,0.007138859258423303,0,2.311377831611195e-15,0],[0.22458671329618773,0.185844462376646,0,0,0.15139017778414854,0.2825562524203812,0.15562239412263662,0],[0,0.06864090234378073,0,0.10077365119056511,0.1374129705374384,6.273943863605896e-16,1.1140760074060623e-14,0.693172475928204],[0.031129704215363187,0.18578981018498472,0,0,0.1513426271865414,0.10330110461376944,0.2216034943604301,0.30683325943891115],[0,0.0022002880315079767,0,0.8992323487845896,0.09856736318389477,5.110966943270374e-15,2.681112802777004e-15,0]]","[1.9625341748528926,1.5169145114059281,1.9119656630922006,0.06116306098273378,2.280322870927974,1.3588843500111427,2.362303036870217,0.486703132356095]","[6,7,3,2,4,0,6,4,4,5,7,4,6,0,6,7,3,2,0,0,4,6,1,5,7,3,2,1,4,6,5,7,3,2,6,6,6,0,0,0,0,1,5,4,1,5,7,3,2,6,5,4,5,7,3,2,6,7,3,2,1,1,1,5,7,3,2,1,1,1,4,5,7,3,2,6,4,6,6,4]","80","80","16","427","","<div class=""feedback-message""></div><div class=""stimulus-container""><div class=""position-wrapper""><div class=""key-label"">A</div><div class=""position-box "" data-position=""0""></div></div><div class=""position-wrapper""><div class=""key-label"">S</div><div class=""position-box "" data-position=""1""></div></div><div class=""position-wrapper""><div class=""key-label"">D</div><div class=""position-box "" data-position=""2""></div></div><div class=""position-wrapper""><div class=""key-label"">F</div><div class=""position-box "" data-position=""3""></div></div><div class=""position-wrapper""><div class=""key-label"">J</div><div class=""position-box "" data-position=""4""></div></div><div class=""position-wrapper""><div class=""key-label"">K</div><div class=""position-box "" data-position=""5""></div></div><div class=""position-wrapper""><div class=""key-label"">L</div><div class=""position-box "" data-position=""6""></div></div><div class=""position-wrapper""><div class=""key-label"">;</div><div class=""position-box active"" data-position=""7""></div></div></div><div class=""finger-diagram-container"">
			<img src=""assets/finger-diagrams/finger-diagram-8pos.png"" alt=""Finger position guide"" class=""finger-diagram"" />
		</div>","l","7",";","0.486703132356095","null","false","","","","",""
"","","","","","practice","feedback","html-keyboard-response","32","15068","0.0-11.0-0.0-1.0","R_m4ommtwk0e","N/A","N/A","8","[[0.36839347962148555,0.18582932025876694,0.007099807624767577,0,0.15137431597034123,0.00004704006797403088,0.2872560364566646,0],[0.0013850875680487965,0.18586284378261636,0,0,0.15139295312519652,0.6140674167743133,0.047291698749824945,0],[0.3745104341474003,0.1858379056676631,0,0,0.1513860127041273,0.00003380252449319531,0.2882318449563162,0],[0,0,0.9928611407415743,0,0.007138859258423303,0,2.311377831611195e-15,0],[0.22458671329618773,0.185844462376646,0,0,0.15139017778414854,0.2825562524203812,0.15562239412263662,0],[0,0.06864090234378073,0,0.10077365119056511,0.1374129705374384,6.273943863605896e-16,1.1140760074060623e-14,0.693172475928204],[0.031129704215363187,0.18578981018498472,0,0,0.1513426271865414,0.10330110461376944,0.2216034943604301,0.30683325943891115],[0,0.0022002880315079767,0,0.8992323487845896,0.09856736318389477,5.110966943270374e-15,2.681112802777004e-15,0]]","[1.9625341748528926,1.5169145114059281,1.9119656630922006,0.06116306098273378,2.280322870927974,1.3588843500111427,2.362303036870217,0.486703132356095]","[6,7,3,2,4,0,6,4,4,5,7,4,6,0,6,7,3,2,0,0,4,6,1,5,7,3,2,1,4,6,5,7,3,2,6,6,6,0,0,0,0,1,5,4,1,5,7,3,2,6,5,4,5,7,3,2,6,7,3,2,1,1,1,5,7,3,2,1,1,1,4,5,7,3,2,6,4,6,6,4]","80","80","16","null","","<div class=""feedback-message""><div class=""feedback-error"">✗<br>Try again!</div></div><div class=""stimulus-container""><div class=""position-wrapper""><div class=""key-label"">A</div><div class=""position-box "" data-position=""0""></div></div><div class=""position-wrapper""><div class=""key-label"">S</div><div class=""position-box "" data-position=""1""></div></div><div class=""position-wrapper""><div class=""key-label"">D</div><div class=""position-box "" data-position=""2""></div></div><div class=""position-wrapper""><div class=""key-label"">F</div><div class=""position-box "" data-position=""3""></div></div><div class=""position-wrapper""><div class=""key-label"">J</div><div class=""position-box "" data-position=""4""></div></div><div class=""position-wrapper""><div class=""key-label"">K</div><div class=""position-box "" data-position=""5""></div></div><div class=""position-wrapper""><div class=""key-label"">L</div><div class=""position-box "" data-position=""6""></div></div><div class=""position-wrapper""><div class=""key-label"">;</div><div class=""position-box active"" data-position=""7""></div></div></div><div class=""finger-diagram-container"">
			<img src=""assets/finger-diagrams/finger-diagram-8pos.png"" alt=""Finger position guide"" class=""finger-diagram"" />
		</div>","null","","","","","","","","","",""
"","","","","","practice","retry","html-keyboard-response","33","15242","0.0-11.0-0.1-0.1","R_m4ommtwk0e","N/A","N/A","8","[[0.36839347962148555,0.18582932025876694,0.007099807624767577,0,0.15137431597034123,0.00004704006797403088,0.2872560364566646,0],[0.0013850875680487965,0.18586284378261636,0,0,0.15139295312519652,0.6140674167743133,0.047291698749824945,0],[0.3745104341474003,0.1858379056676631,0,0,0.1513860127041273,0.00003380252449319531,0.2882318449563162,0],[0,0,0.9928611407415743,0,0.007138859258423303,0,2.311377831611195e-15,0],[0.22458671329618773,0.185844462376646,0,0,0.15139017778414854,0.2825562524203812,0.15562239412263662,0],[0,0.06864090234378073,0,0.10077365119056511,0.1374129705374384,6.273943863605896e-16,1.1140760074060623e-14,0.693172475928204],[0.031129704215363187,0.18578981018498472,0,0,0.1513426271865414,0.10330110461376944,0.2216034943604301,0.30683325943891115],[0,0.0022002880315079767,0,0.8992323487845896,0.09856736318389477,5.110966943270374e-15,2.681112802777004e-15,0]]","[1.9625341748528926,1.5169145114059281,1.9119656630922006,0.06116306098273378,2.280322870927974,1.3588843500111427,2.362303036870217,0.486703132356095]","[6,7,3,2,4,0,6,4,4,5,7,4,6,0,6,7,3,2,0,0,4,6,1,5,7,3,2,1,4,6,5,7,3,2,6,6,6,0,0,0,0,1,5,4,1,5,7,3,2,6,5,4,5,7,3,2,6,7,3,2,1,1,1,5,7,3,2,1,1,1,4,5,7,3,2,6,4,6,6,4]","80","80","16","173","","<div class=""feedback-message""></div><div class=""stimulus-container""><div class=""position-wrapper""><div class=""key-label"">A</div><div class=""position-box "" data-position=""0""></div></div><div class=""position-wrapper""><div class=""key-label"">S</div><div class=""position-box "" data-position=""1""></div></div><div class=""position-wrapper""><div class=""key-label"">D</div><div class=""position-box "" data-position=""2""></div></div><div class=""position-wrapper""><div class=""key-label"">F</div><div class=""position-box "" data-position=""3""></div></div><div class=""position-wrapper""><div class=""key-label"">J</div><div class=""position-box "" data-position=""4""></div></div><div class=""position-wrapper""><div class=""key-label"">K</div><div class=""position-box "" data-position=""5""></div></div><div class=""position-wrapper""><div class=""key-label"">L</div><div class=""position-box "" data-position=""6""></div></div><div class=""position-wrapper""><div class=""key-label"">;</div><div class=""position-box active"" data-position=""7""></div></div></div><div class=""finger-diagram-container"">
			<img src=""assets/finger-diagrams/finger-diagram-8pos.png"" alt=""Finger position guide"" class=""finger-diagram"" />
		</div>",";","7",";","0.486703132356095","null","true","","","","",""
"","","","","","practice","feedback","html-keyboard-response","34","15444","0.0-11.0-0.1-1.1","R_m4ommtwk0e","N/A","N/A","8","[[0.36839347962148555,0.18582932025876694,0.007099807624767577,0,0.15137431597034123,0.00004704006797403088,0.2872560364566646,0],[0.0013850875680487965,0.18586284378261636,0,0,0.15139295312519652,0.6140674167743133,0.047291698749824945,0],[0.3745104341474003,0.1858379056676631,0,0,0.1513860127041273,0.00003380252449319531,0.2882318449563162,0],[0,0,0.9928611407415743,0,0.007138859258423303,0,2.311377831611195e-15,0],[0.22458671329618773,0.185844462376646,0,0,0.15139017778414854,0.2825562524203812,0.15562239412263662,0],[0,0.06864090234378073,0,0.10077365119056511,0.1374129705374384,6.273943863605896e-16,1.1140760074060623e-14,0.693172475928204],[0.031129704215363187,0.18578981018498472,0,0,0.1513426271865414,0.10330110461376944,0.2216034943604301,0.30683325943891115],[0,0.0022002880315079767,0,0.8992323487845896,0.09856736318389477,5.110966943270374e-15,2.681112802777004e-15,0]]","[1.9625341748528926,1.5169145114059281,1.9119656630922006,0.06116306098273378,2.280322870927974,1.3588843500111427,2.362303036870217,0.486703132356095]","[6,7,3,2,4,0,6,4,4,5,7,4,6,0,6,7,3,2,0,0,4,6,1,5,7,3,2,1,4,6,5,7,3,2,6,6,6,0,0,0,0,1,5,4,1,5,7,3,2,6,5,4,5,7,3,2,6,7,3,2,1,1,1,5,7,3,2,1,1,1,4,5,7,3,2,6,4,6,6,4]","80","80","16","null","","<div class=""feedback-message""><div class=""feedback-correct"">✓</div></div><div class=""stimulus-container""><div class=""position-wrapper""><div class=""key-label"">A</div><div class=""position-box "" data-position=""0""></div></div><div class=""position-wrapper""><div class=""key-label"">S</div><div class=""position-box "" data-position=""1""></div></div><div class=""position-wrapper""><div class=""key-label"">D</div><div class=""position-box "" data-position=""2""></div></div><div class=""position-wrapper""><div class=""key-label"">F</div><div class=""position-box "" data-position=""3""></div></div><div class=""position-wrapper""><div class=""key-label"">J</div><div class=""position-box "" data-position=""4""></div></div><div class=""position-wrapper""><div class=""key-label"">K</div><div class=""position-box "" data-position=""5""></div></div><div class=""position-wrapper""><div class=""key-label"">L</div><div class=""position-box "" data-position=""6""></div></div><div class=""position-wrapper""><div class=""key-label"">;</div><div class=""position-box active"" data-position=""7""></div></div></div><div class=""finger-diagram-container"">
			<img src=""assets/finger-diagrams/finger-diagram-8pos.png"" alt=""Finger position guide"" class=""finger-diagram"" />
		</div>","null","","","","","","","","","",""
"","","","","","practice","rsi","html-keyboard-response","35","15566","0.0-11.0-1.0","R_m4ommtwk0e","N/A","N/A","8","[[0.36839347962148555,0.18582932025876694,0.007099807624767577,0,0.15137431597034123,0.00004704006797403088,0.2872560364566646,0],[0.0013850875680487965,0.18586284378261636,0,0,0.15139295312519652,0.6140674167743133,0.047291698749824945,0],[0.3745104341474003,0.1858379056676631,0,0,0.1513860127041273,0.00003380252449319531,0.2882318449563162,0],[0,0,0.9928611407415743,0,0.007138859258423303,0,2.311377831611195e-15,0],[0.22458671329618773,0.185844462376646,0,0,0.15139017778414854,0.2825562524203812,0.15562239412263662,0],[0,0.06864090234378073,0,0.10077365119056511,0.1374129705374384,6.273943863605896e-16,1.1140760074060623e-14,0.693172475928204],[0.031129704215363187,0.18578981018498472,0,0,0.1513426271865414,0.10330110461376944,0.2216034943604301,0.30683325943891115],[0,0.0022002880315079767,0,0.8992323487845896,0.09856736318389477,5.110966943270374e-15,2.681112802777004e-15,0]]","[1.9625341748528926,1.5169145114059281,1.9119656630922006,0.06116306098273378,2.280322870927974,1.3588843500111427,2.362303036870217,0.486703132356095]","[6,7,3,2,4,0,6,4,4,5,7,4,6,0,6,7,3,2,0,0,4,6,1,5,7,3,2,1,4,6,5,7,3,2,6,6,6,0,0,0,0,1,5,4,1,5,7,3,2,6,5,4,5,7,3,2,6,7,3,2,1,1,1,5,7,3,2,1,1,1,4,5,7,3,2,6,4,6,6,4]","80","80","16","null","","<div class=""feedback-message""></div><div class=""stimulus-container""><div class=""position-wrapper""><div class=""key-label"">A</div><div class=""position-box "" data-position=""0""></div></div><div class=""position-wrapper""><div class=""key-label"">S</div><div class=""position-box "" data-position=""1""></div></div><div class=""position-wrapper""><div class=""key-label"">D</div><div class=""position-box "" data-position=""2""></div></div><div class=""position-wrapper""><div class=""key-label"">F</div><div class=""position-box "" data-position=""3""></div></div><div class=""position-wrapper""><div class=""key-label"">J</div><div class=""position-box "" data-position=""4""></div></div><div class=""position-wrapper""><div class=""key-label"">K</div><div class=""position-box "" data-position=""5""></div></div><div class=""position-wrapper""><div class=""key-label"">L</div><div class=""position-box "" data-position=""6""></div></div><div class=""position-wrapper""><div class=""key-label"">;</div><div class=""position-box "" data-position=""7""></div></div></div><div class=""finger-diagram-container"">
			<img src=""assets/finger-diagrams/finger-diagram-8pos.png"" alt=""Finger position guide"" class=""finger-diagram"" />
		</div>","null","","","","","","","","","",""
"","","","","","practice","stimulus","html-keyboard-response","36","15991","0.0-12.0-0.0-0.0","R_m4ommtwk0e","N/A","N/A","8","[[0.36839347962148555,0.18582932025876694,0.007099807624767577,0,0.15137431597034123,0.00004704006797403088,0.2872560364566646,0],[0.0013850875680487965,0.18586284378261636,0,0,0.15139295312519652,0.6140674167743133,0.047291698749824945,0],[0.3745104341474003,0.1858379056676631,0,0,0.1513860127041273,0.00003380252449319531,0.2882318449563162,0],[0,0,0.9928611407415743,0,0.007138859258423303,0,2.311377831611195e-15,0],[0.22458671329618773,0.185844462376646,0,0,0.15139017778414854,0.2825562524203812,0.15562239412263662,0],[0,0.06864090234378073,0,0.10077365119056511,0.1374129705374384,6.273943863605896e-16,1.1140760074060623e-14,0.693172475928204],[0.031129704215363187,0.18578981018498472,0,0,0.1513426271865414,0.10330110461376944,0.2216034943604301,0.30683325943891115],[0,0.0022002880315079767,0,0.8992323487845896,0.09856736318389477,5.110966943270374e-15,2.681112802777004e-15,0]]","[1.9625341748528926,1.5169145114059281,1.9119656630922006,0.06116306098273378,2.280322870927974,1.3588843500111427,2.362303036870217,0.486703132356095]","[6,7,3,2,4,0,6,4,4,5,7,4,6,0,6,7,3,2,0,0,4,6,1,5,7,3,2,1,4,6,5,7,3,2,6,6,6,0,0,0,0,1,5,4,1,5,7,3,2,6,5,4,5,7,3,2,6,7,3,2,1,1,1,5,7,3,2,1,1,1,4,5,7,3,2,6,4,6,6,4]","80","80","16","424","","<div class=""feedback-message""></div><div class=""stimulus-container""><div class=""position-wrapper""><div class=""key-label"">A</div><div class=""position-box "" data-position=""0""></div></div><div class=""position-wrapper""><div class=""key-label"">S</div><div class=""position-box "" data-position=""1""></div></div><div class=""position-wrapper""><div class=""key-label"">D</div><div class=""position-box active"" data-position=""2""></div></div><div class=""position-wrapper""><div class=""key-label"">F</div><div class=""position-box "" data-position=""3""></div></div><div class=""position-wrapper""><div class=""key-label"">J</div><div class=""position-box "" data-position=""4""></div></div><div class=""position-wrapper""><div class=""key-label"">K</div><div class=""position-box "" data-position=""5""></div></div><div class=""position-wrapper""><div class=""key-label"">L</div><div class=""position-box "" data-position=""6""></div></div><div class=""position-wrapper""><div class=""key-label"">;</div><div class=""position-box "" data-position=""7""></div></div></div><div class=""finger-diagram-container"">
			<img src=""assets/finger-diagrams/finger-diagram-8pos.png"" alt=""Finger position guide"" class=""finger-diagram"" />
		</div>","s","2","d","1.9119656630922006","null","false","","","","",""
"","","","","","practice","feedback","html-keyboard-response","37","16195","0.0-12.0-0.0-1.0","R_m4ommtwk0e","N/A","N/A","8","[[0.36839347962148555,0.18582932025876694,0.007099807624767577,0,0.15137431597034123,0.00004704006797403088,0.2872560364566646,0],[0.0013850875680487965,0.18586284378261636,0,0,0.15139295312519652,0.6140674167743133,0.047291698749824945,0],[0.3745104341474003,0.1858379056676631,0,0,0.1513860127041273,0.00003380252449319531,0.2882318449563162,0],[0,0,0.9928611407415743,0,0.007138859258423303,0,2.311377831611195e-15,0],[0.22458671329618773,0.185844462376646,0,0,0.15139017778414854,0.2825562524203812,0.15562239412263662,0],[0,0.06864090234378073,0,0.10077365119056511,0.1374129705374384,6.273943863605896e-16,1.1140760074060623e-14,0.693172475928204],[0.031129704215363187,0.18578981018498472,0,0,0.1513426271865414,0.10330110461376944,0.2216034943604301,0.30683325943891115],[0,0.0022002880315079767,0,0.8992323487845896,0.09856736318389477,5.110966943270374e-15,2.681112802777004e-15,0]]","[1.9625341748528926,1.5169145114059281,1.9119656630922006,0.06116306098273378,2.280322870927974,1.3588843500111427,2.362303036870217,0.486703132356095]","[6,7,3,2,4,0,6,4,4,5,7,4,6,0,6,7,3,2,0,0,4,6,1,5,7,3,2,1,4,6,5,7,3,2,6,6,6,0,0,0,0,1,5,4,1,5,7,3,2,6,5,4,5,7,3,2,6,7,3,2,1,1,1,5,7,3,2,1,1,1,4,5,7,3,2,6,4,6,6,4]","80","80","16","null","","<div class=""feedback-message""><div class=""feedback-error"">✗<br>Try again!</div></div><div class=""stimulus-container""><div class=""position-wrapper""><div class=""key-label"">A</div><div class=""position-box "" data-position=""0""></div></div><div class=""position-wrapper""><div class=""key-label"">S</div><div class=""position-box "" data-position=""1""></div></div><div class=""position-wrapper""><div class=""key-label"">D</div><div class=""position-box active"" data-position=""2""></div></div><div class=""position-wrapper""><div class=""key-label"">F</div><div class=""position-box "" data-position=""3""></div></div><div class=""position-wrapper""><div class=""key-label"">J</div><div class=""position-box "" data-position=""4""></div></div><div class=""position-wrapper""><div class=""key-label"">K</div><div class=""position-box "" data-position=""5""></div></div><div class=""position-wrapper""><div class=""key-label"">L</div><div class=""position-box "" data-position=""6""></div></div><div class=""position-wrapper""><div class=""key-label"">;</div><div class=""position-box "" data-position=""7""></div></div></div><div class=""finger-diagram-container"">
			<img src=""assets/finger-diagrams/finger-diagram-8pos.png"" alt=""Finger position guide"" class=""finger-diagram"" />
		</div>","null","","","","","","","","","",""
